#timestamp [ns],w_RS_S_x [rad s^-1],w_RS_S_y [rad s^-1],w_RS_S_z [rad s^-1],a_RS_S_x [m s^-2],a_RS_S_y [m s^-2],a_RS_S_z [m s^-2]
951412772644479,-0.007459675459078836,-0.007016993407910046,-0.009922316707064529,10.286825539490156,0.1842538154576112,-2.7776167189927
951412773621197,0.014019240624505987,0.0013080418022963299,0.0022320603797140967,10.223822095046211,0.1739225043159687,-2.479936739713306
951412774597916,0.0064294182419526716,0.004223794699749097,-0.012459911527129715,10.320262854243426,0.2684483914167166,-2.2227410785536876
951412775574375,-0.03438060751507312,0.02923765696282123,0.013717435195748263,10.309097325498911,0.2845676183245523,-1.7583609073611686
951412776551093,-0.006026354865368144,0.003962913469982773,-0.011925311511677245,10.255546002499992,0.2528398225646898,-2.3049006931864664
951412777527760,0.0020892181926822025,0.0022294692396418792,0.0015640611108748029,10.258511381369203,0.22343427849064906,-2.8990696733520243
951412778504479,-0.008654439280682599,-0.011035730219224788,-0.014729704838516083,10.279727165804408,0.16371360069083365,-2.982420266378033
951412779481197,0.0018385879276634231,-0.011330582438008814,-0.0033777292758687435,10.241065882833157,0.16882123486866313,-2.7287965462592103
951412780457916,0.017837268025667635,0.002135688687341704,-0.008853116676159591,10.276482354650339,0.22170799430853838,-2.4061119855553494
951412781434375,-0.00825892705386012,0.00271777548098671,-0.0031109307690950928,10.304410242845844,0.23284685508503833,-2.1000971458011337
951412782411093,-0.017260955409668176,-0.0011181188506883908,-0.0023095322468689714,10.284435844946271,0.24268986639700202,-1.8714790012456706
951412783387812,0.002469888324142934,-0.00011363411408729551,-0.008452918915999114,10.245795899832627,0.25144633639147007,-2.456122142543176
951412784364531,-0.005858283657939241,-0.0016256669904495197,0.0002280625731962152,10.255396106238935,0.1957722050612872,-3.080058623567227
951412785341197,-0.0045532930167558145,-0.007192621304333067,-0.014729704838516083,10.29193061095965,0.11834064165539418,-3.0348113860134265
951412786317656,0.007025352593690608,-0.011788829420870372,0.004636255946392456,10.245631657055437,0.1643165274162509,-2.5311378750943625
951412787294375,0.009735676948360758,0.008200668813558534,-0.0121921100184509,10.229064950312576,0.26722253804955276,-2.247746654117047
951412788271093,-0.01618919408891773,0.00026989503036160736,0.004636255946392456,10.247602460893074,0.22335064587927198,-2.0691386665494105
951412789247812,-0.005224146193227551,0.00599803047113381,-0.006716722618160048,10.280426839383907,0.23879913563813132,-2.1060510436283892
951412790224531,0.0014310224792745043,-0.003361418965001637,-0.0012403322159640347,10.226142113262561,0.22260613444827992,-2.6263952696359905
951412791201250,-0.009842920725335522,-0.0036670034663462067,-0.005781924842547103,10.26309817164316,0.18737517699557255,-3.118161979039435
951412792177708,-0.0006938087563346516,-0.012061858705475752,-0.0109905137360643,10.276871981672887,0.1304848237197065,-2.868111194100301
951412793154427,0.012703201939380581,-0.00679926990828816,-0.00043893369373791533,10.197904360779381,0.23942206227987803,-2.5323278593486998
951412794131093,0.000990638840322726,0.006339772966067922,-0.012860109287290193,10.183290950500647,0.2983734565126782,-2.132246603446086
951412795107812,-0.020423146745588847,-0.005712036826115594,0.0024988588864877474,10.220981507342952,0.24716593787485355,-2.090571306933082
951412796084531,-0.0011242036907633099,0.005293210685299793,-0.011390711496224778,10.302210969305785,0.22909870439499197,-2.2286949763809427
951412797061250,-0.000145795133072258,-0.005572472816259768,0.0033002574087138688,10.218226956672858,0.19255757949046803,-2.8085751982444225
951412798037708,0.004345188687226275,-0.029147528221113304,-0.02488008411877683,10.250153615626637,0.13603720927419152,-3.1741260338545176
951412799014427,0.0027807645250655815,-0.011133301762420009,0.0038348574241663354,10.271516379595976,0.13768522888400023,-2.8323897954145525
951412799991145,0.00856056392789267,-0.0010711344675159568,-0.011791912258290422,10.24039433195007,0.22884098992134025,-2.4215907281117643
951412800967864,-0.006538760096017353,0.0035080634468257575,-0.0036445277826423943,10.2446918713059,0.2769541918131333,-2.1024781084487003
951412801944583,-0.014732516838279988,-0.003610487726230012,0.0004958640818750311,10.24756362503216,0.242514874825372,-2.0024577944730466
951412802920989,0.004585559963235512,0.0001316170236289978,-0.010723715229290649,10.25353483554289,0.2491998483859639,-2.352529887526726
951412803897708,-0.005979829072940495,-0.006520356735238238,0.0010294610954223345,10.22665075753278,0.20668098931904824,-2.9455078892990545
951412804874427,-0.0028319771901043423,-0.0021225094802671393,-0.010857114482677474,10.248210381698911,0.15166228178731184,-3.07886863931289
951412805851145,0.010852232611432958,-0.003975074896430776,0.004101655930939988,10.222299706164664,0.16527094281366506,-2.7085548842687692
951412806827864,0.01146002879273614,0.006604471819346326,-0.012860109287290193,10.294069520818837,0.25873105564041643,-2.357292806960752
951412807804583,-0.017116198943850833,-0.0037356225696525917,0.0012972626041011504,10.252276442646943,0.2783661723739456,-1.938158879183142
951412808781041,-0.0017602343244330558,-0.008883893883484581,-0.011257312242837951,10.27413771937728,0.241252432226891,-2.054849908247333
951412809757760,0.01030988541113127,-0.006966491325393689,-0.004312527051481688,10.237931865194907,0.2036137173649463,-2.564477316993652
951412810734479,-0.010917386189255394,0.0018806062685134907,-0.007784919647159819,10.245146429802945,0.18508195949998038,-3.050291122708734
951412811711145,0.008197797231192572,-0.009337337163879,-0.0027097300070294495,10.251430836681205,0.1661261303197647,-2.960987625994362
951412812687864,0.012550428717496849,0.0009940417921183533,-0.003244330022481916,10.218134678439705,0.19659466717460725,-2.4644570030179986
951412813664583,-0.005494577480450494,0.0077097458743184055,-0.007918318900546647,10.255774388477109,0.2923845867282681,-2.1536792438297567
951412814641041,-0.01790547400926404,-0.005713237751732378,0.0023654596331009223,10.309609713389243,0.26048506608773236,-1.9369688949288046
951412815617760,0.006170225861091478,-0.0009628306417601905,-0.014462906331742431,10.279407265741213,0.21836073530854877,-2.234647880069306
951412816594479,-0.004522658228896112,-0.00665850497281555,0.0004958640818750311,10.22845698406124,0.22002875350648773,-2.770471842772215
951412817571197,-0.003499320003589587,-0.0013406460527774148,-0.012326512273742887,10.20988851635166,0.15513680883379521,-3.155074356118414
951412818547916,0.013382437590947042,-0.009933947230979597,0.004636255946392456,10.244931447589774,0.1723259864159397,-2.782379638426726
951412819524322,0.006021933008695307,0.010727909679566482,-0.011123912989451127,10.214639201426548,0.24318612081163649,-2.391823227253272
951412820501041,-0.023658553534840993,0.017560238989333364,-0.0028431292604162747,10.274165426787803,0.27224903917979226,-2.054849908247333
951412821477760,-0.007190754922372718,-0.006201458915570777,-0.007651520393772996,10.317250961674008,0.20678348522951873,-1.9762622346553498
951412822454479,0.004462057910335428,0.00043720152497356767,-0.006182122602707581,10.244376062616547,0.21346786429892836,-2.3275243119633666
951412823431197,-0.008637273402681953,-0.002411133194789598,0.0012972626041011504,10.221533154709883,0.24031383901729486,-2.7573740628633665
951412824407916,-0.0009761974558100682,-0.0015849020820227367,-0.010055715960451355,10.294755842479555,0.16467915171026623,-3.1515024150776174
951412825384375,0.021855857840532948,-0.009968819221445924,0.0007626625886486819,10.157340759573465,0.14616179881467384,-2.734750444086466
951412826361093,-0.0032721489022260455,0.016662942230377682,-0.01419610782496878,10.187863580637647,0.26360006422336907,-2.282277074409566
951412827337760,-0.02016607058473115,-0.0014706787056894789,0.0026322581398745748,10.274618099371613,0.27824526772977665,-2.028654348429636
951412828314531,0.003508201996930329,0.005803366493440302,-0.013528108556129487,10.288977622830767,0.2245096841861263,-2.094143247973878
951412829291197,0.00130228564029591,-0.0017423863250386926,0.0019642588710352808,10.279743952763916,0.1979340650921668,-2.3537198717810637
951412830267916,-0.012509615776231603,-0.00039877579139878275,-0.010723715229290649,10.255559521010683,0.2137598953479907,-3.0014719441141366
951412831244375,-0.0016547968459869914,0.026131932080018627,0.007307250019844468,10.25010123249216,0.12291912206162289,-3.1765069965020842
951412832221093,0.010431542702212549,-0.0023415189830122414,-0.005781924842547103,10.212473908231292,0.2252286550257263,-2.447787282068354
951412833197812,-0.010279834376461645,0.01005193919708304,-0.012593310780516538,10.247388432328222,0.28522931987142935,-2.154870222222986
951412834174531,-0.01791730981794392,-0.005764940759865519,-0.0033777292758687435,10.227267595885523,0.26883496511949295,-1.933395959749116
951412835151250,0.009221322382135447,0.002259613575631584,-0.0097889174536777,10.259560261074276,0.21234223418632844,-2.27751415497554
951412836127656,-0.01076153869580683,-0.0002881551919158782,0.0015640611108748029,10.25098113370508,0.2300197115981517,-2.4311175611187092
951412837104375,-0.006553592349443613,0.0009050739718012317,-0.013126907794063844,10.253382288336596,0.1768211481007653,-2.9871831858120586
951412838081093,0.013910334965382111,-0.009009122833929507,0.004235055184326813,10.249013475826487,0.17337048480914893,-2.8931157755247687
951412839057812,0.007087403614660092,0.0034010546537091217,-0.015531103360742203,10.205789063502136,0.24663141739237687,-2.4906525628356957
951412840034531,-0.01580057050159766,-0.002171895714673143,-0.0016415329780296777,10.2206976688063,0.24246873982646824,-2.0369892089044583
951412841011250,-0.0058862508099225795,0.0014585172792414766,-0.010455913720611833,10.240214972005527,0.26634189693415433,-2.014365590127558
951412841987708,0.006452595785006484,0.003255588696376926,-0.0021761329934821463,10.241556565496953,0.2325080075637967,-2.3537198717810637
951412842964427,-0.018321297986034393,-0.0009821576176829196,-0.0019083314848033302,10.209809084136964,0.22382880545018188,-2.6037716508590893
951412843941145,0.000883385530522081,-0.002634861322495406,-0.008853116676159591,10.255955023694211,0.18976165852402258,-3.1169710006462052
951412844917812,0.013763428389915018,-0.0021262063641398397,0.003433656662100694,10.244517627843875,0.1471655302480545,-2.8752550761818942
951412845894531,-0.008549837494017115,0.005141619360244292,-0.013528108556129487,10.194982744039494,0.2958766127990945,-2.2167871807264317
951412846870989,-0.014866017758119932,-0.0016076260176500058,0.0022320603797140967,10.295396873560456,0.3201930170828985,-1.863144140770848
951412847847708,0.005769678209665887,0.0018325150667466187,-0.013126907794063844,10.2758443797175,0.25779473508672685,-2.165587039484268
951412848824427,-0.002402507013380868,-0.0038511409786249804,0.0031668581553270414,10.279496204521491,0.18223104056851927,-2.507323277924233
951412849801145,-0.014505117413720656,0.0047760370815725555,-0.009922316707064529,10.202232911762074,0.20343713461068533,-2.6966470886142577
951412850777864,0.00885938483941703,-0.008674594922212018,-0.0027097300070294495,10.323885034206912,0.16618817316038056,-2.9145494100473317
951412851754583,0.007628651476759623,0.0018493460844134324,-0.011257312242837951,10.219341708123535,0.153492653062524,-2.60138969407263
951412852731041,-0.015014572273543185,0.0012611515261462423,-0.002976528513803102,10.244249171533792,0.2422555678408901,-2.196545518735991
951412853707760,0.008226424594016757,-0.03739931078055902,-0.01419610782496878,10.293021522640963,0.33569082287772434,-1.863144140770848
951412854684427,0.005518458808116945,0.0033602897452823387,-0.005247324827094636,10.270997752435798,0.23146987257291213,-2.238220815248995
951412855661145,-0.011950275532681123,-0.004413994903369604,-0.00043893369373791533,10.242824947287051,0.19766203130303556,-2.557333434912059
951412856637864,-0.006164973973673912,0.008343835600264712,-0.0109905137360643,10.23123708245036,0.23188758048583719,-2.818101037112475
951412857614583,0.011124264971627468,-0.008619289137228522,0.003433656662100694,10.221979841192153,0.15056687883190356,-3.0062338694092703
951412858591041,-0.0011423171909153713,0.006817261847345776,-0.018736697449646685,10.207836033743838,0.18223104056851927,-2.507323277924233
951412859567760,-0.0196299104321629,-0.00184707834442819,0.005036453706552933,10.256665376454977,0.27595105619913407,-1.9607824979600423
951412860544479,0.002988839615021294,0.004110892988672004,-0.010189115213838178,10.299520266967447,0.2880485087733604,-1.829803704732666
951412861521145,-0.0008268786358852403,0.0019623685351299056,0.0012972626041011504,10.293259457223533,0.2395938728144453,-2.4037300287688903
951412862497864,-0.01686867155877438,-0.003142624308918264,-0.006449924111386397,10.233767122477571,0.21897252500007786,-2.6692605504033318
951412863474322,0.0018071122741322397,0.004161395071188361,-0.0045793255582553425,10.227363425604151,0.23057900421665153,-2.90502357117928
951412864451041,0.008466905495718343,-0.009451654647234603,-0.0007067352024167313,10.289285514669633,0.14968882293418645,-2.7716628211654446
951412865427760,-0.0050924599820776385,-1.7357603531205145e-05,-0.012459911527129715,10.221130214310504,0.2551483520826127,-2.3620557263947783
951412866404479,-0.014734916586298694,0.0007872654217187405,0.0033002574087138688,10.284189447838363,0.30823555803161595,-1.8893397005885448
951412867381197,0.004837048321015862,0.005283585221333686,-0.012459911527129715,10.280109208639688,0.25216857657842534,-1.9155352604062417
951412868357916,-0.007971916156757023,-0.0007969042572937916,0.003968256677553163,10.25906840601731,0.24311135116637125,-2.447787282068354
951412869334375,-0.0110599631348622,0.00036625661842412845,-0.014062708571581954,10.244447525257653,0.22235637323138466,-2.8133381176784487
951412870311041,0.009115407414708279,0.0011732814949076428,0.0019642588710352808,10.25882730143929,0.16742993436925657,-2.8776370329683534
951412871287760,0.003913812035409487,0.003565865190065167,-0.011925311511677245,10.214690767750904,0.18797969490362074,-2.6656886093625354
951412872264479,-0.009304285340268077,-0.0026962748721010847,-0.0009735337091903838,10.188614958042116,0.23981658923941088,-2.2370298368557653
951412873241197,-0.004022101577871926,-0.0001052186052538887,-0.007518121140386169,10.278477309298564,0.2737787420195116,-1.8024171665217399
951412874217916,0.0030031540669120844,0.0015017957490252951,-0.005648525589160276,10.248087194253637,0.24246237642414356,-2.0417521283384845
951412875194375,-0.012889099808244058,-0.0003218262567654212,-0.0021761329934821463,10.272320050627936,0.2226681772888958,-2.57995705368896
951412876171093,-0.014654396188084302,0.01619126118955385,-0.007784919647159819,10.240470910997026,0.21398102191852447,-2.835961736455349
951412877147812,0.014692642450928309,-0.004790609388770044,0.0018308596176484537,10.28389766568554,0.1898921062793798,-3.0193326434570116
951412878124531,-0.00948315520403286,0.009257842637247826,-0.012593310780516538,10.243460722540963,0.18102268755389758,-2.5192300794398514
951412879101197,-0.011280597545348431,-0.0031811841537413756,0.003968256677553163,10.222073670255613,0.2530243599039065,-2.166777023738605
951412880077656,0.0029847669258526977,0.0016893392505245252,-0.014329507078355605,10.295820338530444,0.2822654522089542,-1.6964429547188307
951412881054375,-0.005725587432386549,-0.0013563612223338746,0.0006292633352618565,10.258990437212416,0.250538650484142,-2.2429837346830213
951412882031093,-0.015028169218198611,0.0006670283877856448,-0.010055715960451355,10.236761539558433,0.20214287500058084,-2.772853799558674
951412883007812,0.004343094805597299,-0.0017712356283892665,-0.0012403322159640347,10.266310859274364,0.21027641968150143,-2.9312191309969764
951412883984531,0.00896746055149433,0.002975259751048492,-0.00391232929132121,10.285532783733402,0.17103968271899006,-2.8526314574049936
951412884961250,-0.015293540666296413,0.005607201665961853,-0.0059153240959339305,10.19702558814028,0.20606760844488817,-2.5120861973582587
951412885937708,-0.0001447220240528961,-0.004365903701602732,0.004903054453166108,10.267635344808616,0.2735846602409075,-1.947684718051194
951412886914427,-0.003290940862707652,0.035016388593132136,-0.006716722618160048,10.309088275096386,0.26292145947153045,-1.8976745610633672
951412887891093,-0.023351913221493777,0.001980400478413504,0.0033002574087138688,10.238567242063265,0.22640678353955473,-2.4585031051907427
951412888867812,-0.006032821031749732,0.0032665091929821636,-0.01566450261412903,10.224212983473766,0.1865989355350504,-2.807384219851193
951412889844531,0.007013039304345286,-0.004761751055903554,0.005036453706552933,10.278087806878501,0.17697864064805224,-2.869302172493531
951412890821250,0.0027149875492952506,0.006079877815256656,-0.012326512273742887,10.260174768584896,0.15084527469516032,-2.797858380983141
951412891797708,-0.018576810304560095,-0.0016100368983994905,0.0019642588710352808,10.279259494327917,0.23503825814343565,-2.24417471307625
951412892774427,0.004994220111125811,0.00018211910614535442,-0.005113925573707809,10.325850914663063,0.27503323003303703,-1.7559789505747094
951412893751145,-0.0012387577986680417,0.00229809737246418,-0.005514123333868287,10.264342009771852,0.26745957378999785,-2.070328650803748
951412894727864,-0.015137134249061782,-0.0045740017372585115,-0.0035111285292555704,10.23890338809015,0.19387251916197837,-2.7168897447435914
951412895704531,0.0002079973434745489,0.004524566469110611,-0.008452918915999114,10.230849003447856,0.19004005438727933,-2.908595512220076
951412896680989,0.00618912659990973,0.006734325287729613,0.0015640611108748029,10.278428254498309,0.1483945646522812,-2.8478685379709674
951412897657708,-0.011455302526932823,0.0022439834835815543,-0.011525113751516767,10.26882759193375,0.17012881577459923,-2.6418740121924054
951412898634427,-0.007691737456426689,-0.005939256020548289,0.0067726500043920005,10.260638178127481,0.21829391892004,-2.2846590311960253
951412899611145,0.005364152222835758,0.006337371114834353,-0.013126907794063844,10.296943502097164,0.27620558963572306,-1.7702677088767873
951412900587864,-0.008764965544546621,0.0016172290804912532,0.007173850766457641,10.293056272101444,0.2672766276334122,-2.2072613418583797
951412901564583,-0.013169353993054883,-0.0009243558744435098,-0.010189115213838178,10.2185201524886,0.2021174213912821,-2.7919054772947782
951412902541041,0.006464541173403575,0.0038424972515209003,0.004101655930939988,10.24458942612923,0.18760903037075569,-2.9431259325125954
951412903517760,0.0041771044489709655,0.01130759462197792,-0.005648525589160276,10.258921299955365,0.15322539282128567,-2.801430322023937
951412904494479,-0.01434818771720974,-0.004200999058224341,-0.006182122602707581,10.26744174420055,0.21679285205488125,-2.515658138399055
951412905471145,0.0009036699377410093,-0.0029465445589462445,0.0006292633352618565,10.289177292380753,0.2591892166231961,-2.014365590127558
951412906447864,0.0011231463394004051,0.006202610807445666,-0.01339470930274266,10.296166314976476,0.265509976035341,-1.74526312745232
951412907424583,-0.01818345493989513,0.003445654788749107,0.004235055184326813,10.304027538486327,0.1989706075722212,-2.470410900845254
951412908401041,0.0012730548373546908,-0.0021369386467003843,-0.012459911527129715,10.236186917135282,0.19814814545890116,-3.0860125213944825
951412909377760,0.022277757263462827,-0.03204044547281533,-0.007651520393772996,10.265965264236886,0.18759948460316905,-2.9502708087330807
951412910354479,-0.0051097282155068155,0.009659703649148487,-0.012058710765064071,10.252568440026302,0.16301272469495817,-2.614487473981479
951412911331197,-0.014312066405011802,-0.014462857909466683,0.0019642588710352808,10.209051243416843,0.26228989677155257,-2.370390586869601
951412912307916,0.013590263774998711,0.0009062748974180161,-0.012993508540677016,10.28368626883518,0.2864583542756561,-2.12748368401206
951412913284322,-0.006264938509225854,0.0027418301113860616,-0.00043893369373791533,10.289237099191451,0.2294852780977683,-1.9393498575763717
951412914261041,-0.017423251361508928,0.005301626194133199,-0.010455913720611833,10.267991665023802,0.263328031762437,-2.4858896434016695
951412915237760,0.009111064014444748,-0.0039220858851744195,-0.004713727813547331,10.231667466014123,0.16717380975003665,-3.069342800444838
951412916214479,0.004989617703141484,0.005905562554573885,-0.0021761329934821463,10.241002518537591,0.13754046314136267,-2.9407449698650283
951412917191197,-0.013190196843160562,0.004729146805422468,-0.015130905600581725,10.21717510999829,0.15231770691395752,-2.588291914163782
951412918167916,-0.005435737330303775,-0.011136913568786279,0.003433656662100694,10.192225497322271,0.24697185609624947,-2.235838858462536
951412919144375,0.013047032206777512,0.004853080723228264,-0.016065703376194677,10.255799483565811,0.234254063426157,-1.9393498575763717
951412920121093,-0.013654559786934034,-0.00687150984747673,0.006238049988939532,10.28011832690278,0.2519824480565777,-2.054849908247333
951412921097812,-0.002970979519034646,0.00038669944245721107,-0.011791912258290422,10.23691888539788,0.19619536666718151,-2.763327960690622
951412922074479,0.00885500159086712,-0.0018807403797618174,0.0012972626041011504,10.242537365139912,0.15507476599317935,-3.201512572065444
951412923051197,-0.002977067942532517,0.005569927824261957,-0.010055715960451355,10.237558233111658,0.16754129324583894,-2.794286439942345
951412924027656,-0.011961675295111744,-0.002325888890962212,-0.0040457285447080375,10.200781659419127,0.21681035107922433,-2.5025603584902067
951412925004375,0.006991513905024244,-0.0024520188428557633,-0.003244330022481916,10.230848798086676,0.2555349257853891,-2.0727106075902073
951412925981093,0.003259517405210341,0.0036031390317650632,-0.007784919647159819,10.22902772625341,0.2758444695422454,-2.0405611499452547
951412926957812,-0.017523436330459496,-3.5483653837149555e-05,0.0002280625731962152,10.288129447568235,0.2194879552755805,-2.2834680528027955
951412927934531,0.00020306894985748194,0.005972783944633589,-0.009521115944998885,10.219391989566539,0.21621060539086984,-2.95146178712631
951412928911250,0.005274451156181558,-0.002021514344750342,0.0003614618265830406,10.274213693869237,0.16475392135553146,-3.095538360262535
951412929887656,-0.005497017549339232,-0.00018336906550403464,-0.016199102629581495,10.229638871552474,0.18307250590672006,-2.7692818585178776
951412930864375,-0.00716735587754653,-0.008770871432768107,0.0012972626041011504,10.230351345235468,0.2002855472437315,-2.378725447344423
951412931841093,0.004144723088603858,0.02505900742463992,-0.008853116676159591,10.257490969855718,0.30205578750566453,-2.053658929854103
951412932817812,-0.006921734647082138,-3.788550507071846e-05,-3.873593357743736e-05,10.299349894760791,0.27464188411056695,-2.048896010420077
951412933794531,-0.014243883985170876,0.009168986527054172,-0.007651520393772996,10.243801873592965,0.24423061787664654,-2.5025603584902067
951412934771250,0.004600978003080209,-0.0024736625925056302,-0.005648525589160276,10.224998605473983,0.2064582728940827,-3.112208081212179
951412935747708,-0.005882672782534372,0.0014741473712915057,-0.008719717422772768,10.247036808341068,0.16844738797053613,-3.00861582619573
951412936724427,-0.005070868940211588,-0.01007582801456256,-0.011123912989451127,10.192385440336457,0.18214354544680386,-2.5728121774684745
951412937701093,0.004616892459568819,-0.006678947796848633,-0.001774932231416503,10.288621385632846,0.3148944834917269,-2.259653455632666
951412938677812,0.007222159412698916,0.008353452034714904,-0.009922316707064529,10.257349488353702,0.27352738961998535,-1.990550992957428
951412939654531,-0.018319073460277897,0.0018336218853410569,0.0016974603642616283,10.269938784064832,0.24111084752131617,-2.1608241200502416
951412940630989,-0.0036454302463474995,0.0067486337145234755,-0.011658513004903594,10.210835985944689,0.22491366993115244,-2.6835493087054094
951412941607708,0.0025001390983132045,-0.0027865467545732533,0.0037004551688743464,10.24978081644077,0.16828830424061822,-3.127687817907487
951412942584427,-0.019731784787311187,0.029769438917510486,-0.015531103360742203,10.236653173836597,0.16260865196783872,-2.9169303726948987
951412943561145,-0.011673955252351353,-0.005565258233043146,0.004101655930939988,10.197323758863869,0.21333741521537194,-2.4251636632914533
951412944537864,0.013602873051941543,-0.003313448502874147,-0.010723715229290649,10.285565667324473,0.32465954412136255,-2.089380328539852
951412945514583,-0.004283867655049831,0.004984135117228335,-0.0015081337246428523,10.278869809527865,0.275912875785186,-1.9893600145641983
951412946491041,-0.017399134016382475,0.0008643090633744485,-0.0028431292604162747,10.25743728758255,0.25885514132164816,-2.2644163750666917
951412947467708,0.0024626447610306425,0.0034623740962924543,-0.008719717422772768,10.213584383319189,0.25804063246508463,-2.874065091927557
951412948444427,-0.00015975263949645252,-0.0025615235942283137,-0.0007067352024167313,10.230027958691462,0.1527401870465763,-3.1646001949864657
951412949421145,-0.013055740755596535,0.00687617943869554,-0.0121921100184509,10.213719079481908,0.17002222911771056,-2.7216526641776175
951412950397864,0.005168051208491422,-0.012194302239137299,0.0037004551688743464,10.203027679671195,0.24449787811788487,-2.3025197305389
951412951374583,0.014371329200069045,0.008459148192091287,-0.012993508540677016,10.257317638937518,0.2901205996984188,-2.0631847687221554
951412952351041,-0.016725160769735063,0.0015811561644081412,0.0031668581553270414,10.287096293805428,0.2627894192053431,-1.9965048907846836
951412953327760,-0.011187460531011743,0.0039941736540828315,-0.008452918915999114,10.264925575295658,0.2682304472114448,-2.385869329426016
951412954304479,0.007541486554498569,-0.005701219466048618,0.0037004551688743464,10.25664189813662,0.1791795908022353,-3.0062338694092703
951412955281145,-0.0048329073147565255,0.0042358220149487725,-0.011123912989451127,10.246284836165477,0.12895512087998712,-3.120543935825894
951412956257864,-0.010365314715601398,-0.0013647767311672813,-0.0003055344403510899,10.215004450408383,0.22523979064774471,-2.4394524215935314
951412957234322,0.009916282153842462,-0.007351512290111621,-0.002976528513803102,10.234979703964017,0.28290269550978203,-2.1120039473167522
951412958211041,0.004577598687297394,0.0069098414740291665,-0.008452918915999114,10.256855922622606,0.26166160341892986,-1.9488756964444236
951412959187760,-0.01858487754391325,0.0006260576622130487,9.466331980938805e-05,10.319617397856861,0.29700860498581994,-2.262035412419125
951412960164479,0.001135647035281389,0.002784001762575442,-0.010455913720611833,10.27564158119028,0.19770657511930834,-2.523992998873877
951412961141197,0.0010442373829675205,-0.0031775813768910224,0.00436845443771364,10.257130045482047,0.20773503215164488,-3.0491001443155046
951412962117916,-0.009884547329116436,0.005235494019566814,-0.017801899674033738,10.284897189717984,0.1423792458953228,-2.8883528560907425
951412963094322,-0.0014680646426852473,-0.005157392593058563,0.005303252213326586,10.212518847868244,0.23000062271937685,-2.4454053252818944
951412964071041,0.008157814363591217,0.006251911964345238,-0.007918318900546647,10.288406425293424,0.2782961749483741,-1.990550992957428
951412965047760,0.0019972954227060443,-0.03259388878025558,-0.010322514467225007,10.282241428034576,0.30698524774660196,-1.933395959749116
951412966024479,-0.014490025359508697,-0.0021044685074676256,-0.008853116676159591,10.297478331483154,0.2061710127365149,-2.4346895021595056
951412967001197,0.0026180280716333625,-0.0023150625013793205,-0.0028431292604162747,10.230667313299179,0.19626695527538401,-2.709744868523106
951412967977916,-0.0028206388664421215,0.000865509988991233,-0.0027097300070294495,10.28593904749359,0.2113225079291424,-3.040765283840682
951412968954375,-0.006538367986940294,-0.002636071277628106,-0.008987518931451584,10.237431597136965,0.17835303794249716,-2.7323684873000067
951412969931093,0.012694554185759344,-0.0033638298457511215,-0.0015081337246428523,10.204910673383843,0.24684299819532401,-2.332287231397393
951412970907812,-0.0005942938861355555,0.006626115568996193,-0.010455913720611833,10.237764108842807,0.2748693740834254,-1.8786228833272631
951412971884531,-0.018310483734713355,-0.0005336211762939002,0.0037004551688743464,10.27180441902324,0.24116334592254463,-2.121529786184804
951412972861197,-0.007086834410958388,0.005296813462150146,-0.0109905137360643,10.280621192140268,0.1953385879784509,-2.5120861973582587
951412973837656,0.0038278079360941357,-0.006384395502232768,0.0014306618574879758,10.248378156735633,0.2009259715816221,-2.7919054772947782
951412974814375,-0.011063736183274383,0.003422698403358989,-0.013126907794063844,10.264932758848431,0.12433746602475995,-3.0074248478025
951412975791093,0.004505919995354467,-0.013665355360411012,0.0022320603797140967,10.224958137473125,0.15951910744150075,-2.5525705154780334
951412976767812,0.023556615619058162,-0.0059235318214759134,-0.006182122602707581,10.253092443754799,0.29373989248753973,-2.031035311077203
951412977744531,-0.011316279400585397,0.005212555237277815,-0.005648525589160276,10.301362041899765,0.3013055941456233,-1.7226395086754198
951412978721250,-0.020049307751645543,-0.002474863518122415,-0.005781924842547103,10.224445282451747,0.22184162442915756,-2.3060916715796957
951412979697708,0.005647714997904071,0.0029464104476979182,-0.007116920378320526,10.220544654468952,0.20833000429210646,-2.6037716508590893
951412980674427,-0.0018755671030327027,-0.006271287974009863,-0.0007067352024167313,10.219275936144863,0.21161999399937317,-2.818101037112475
951412981651145,-0.011196489438228407,0.005557909538578197,-0.011390711496224778,10.228286273966198,0.14839615583491217,-2.846677559577738
951412982627812,0.009409276045770729,-0.010990134975713833,0.005036453706552933,10.227579442705068,0.21556540883328557,-2.5418536982167517
951412983604531,0.015570511700023628,0.005010676676367687,-0.013261310049355832,10.236978914465286,0.2675613868989936,-1.9941229339982245
951412984581250,-0.02137270978799232,0.003676476760032156,0.0003614618265830406,10.33423699645002,0.3107047624620877,-1.8262317636918697
951412985557708,-0.010130970370030823,-0.0006959357543940302,-0.014329507078355605,10.289578933636632,0.23729588177096017,-2.3394321076178777
951412986534427,0.006990709957826752,0.0030221590567144955,0.0012972626041011504,10.231348985613236,0.20824091798776007,-2.670451528796561
951412987511145,-0.017961980740426833,0.01915402510279609,-0.002442931500255797,10.266854077543448,0.19344299282556018,-3.0383843211931154
951412988487864,-0.0004388785473252308,-0.004361005892113248,-0.009254317438225234,10.244185579190223,0.15676991596514137,-2.825244919194067
951412989464531,0.015224694796692634,-0.0029092707172463485,0.004769655199779282,10.233850071077445,0.2314603281335247,-2.245364697330588
951412990440989,0.0037739269338078773,0.007139668336841245,-0.012326512273742887,10.297675750470642,0.28213023090570405,-1.7976542470877137
951412991417708,-0.02481108341262012,-0.0004337328593715408,9.466331980938805e-05,10.263307556870355,0.28067847874831264,-1.9917419713506577
951412992394427,0.0036478436849935528,0.0015559947154143515,-0.014329507078355605,10.247881632292993,0.1905316222361142,-2.540663713962415
951412993371145,0.003419220976321508,0.00011490674560156646,0.0022320603797140967,10.241953397223545,0.21757963464623958,-2.8192910213668116
951412994347864,-0.00839945933547617,-0.003597174407907121,-0.012726710033903367,10.293767088247623,0.20064598453573437,-3.0014719441141366
951412995324583,0.006078844826273508,-0.008126170163900638,-0.0007067352024167313,10.170780743996561,0.15471691524705697,-2.5775750969025
951412996301041,0.012135107176610522,0.0033182031715993892,-0.009922316707064529,10.223346720076991,0.23267186351340832,-2.2310759390285098
951412997277760,-0.00944097670347976,0.0003577560320842909,-0.0003055344403510899,10.299680808754955,0.28567634523219065,-1.8202778658646142
951412998254427,-0.0228831850116659,0.02281789431489852,-0.007651520393772996,10.263705025993689,0.2543902054658151,-2.0369892089044583
951412999231145,-0.003497953524619526,0.008016522271763844,-0.003244330022481916,10.21980837747255,0.20350394967099492,-2.646636931626431
951413000207864,0.0014176402846864257,-0.00021352243100965495,-0.004847127066934158,10.26525908135011,0.14820525509337085,-2.9895641484596256
951413001184583,-0.0073425893645824225,-0.0024076421280627112,-0.013126907794063844,10.295698488285959,0.0934140375344929,-2.9526517713806473
951413002161041,0.015900465411299802,-0.009532301065740665,0.005036453706552933,10.230683372015374,0.21452349698595682,-2.4299265827254795
951413003137760,0.0034946568095258813,0.006813650040979507,-0.019137898211712325,10.245534935059327,0.28188206087143974,-1.9834061167369428
951413004114479,-0.019760739077425697,0.0002975434080953967,0.007707447780004945,10.271653092122268,0.2928793369423649,-1.7833654887856356
951413005091197,-0.004709734597600906,0.009534568805725905,-0.011257312242837951,10.242435410888563,0.24321157442093522,-2.3727715495171675
951413006067864,0.005418137121507943,-0.0026445718639679437,0.004769655199779282,10.236167597722917,0.19732795600148764,-2.807384219851193
951413007044375,-0.005501786085542786,0.004738763239872659,-0.014062708571581954,10.273632779290669,0.17929413071588043,-2.9205023137356947
951413008021041,-0.0018863321450311838,-0.002444804259639141,-0.002442931500255797,10.30855804931718,0.15556792502464517,-2.8323897954145525
951413008997760,0.01745999319973537,-0.004457282402669338,-0.005247324827094636,10.248133462933648,0.25630420802420517,-2.3894422646057047
951413009974479,-0.0019009233732321575,0.00016408716286175635,-0.007116920378320526,10.301107316401124,0.23901548998897137,-1.9441127770103976
951413010951197,-0.019118946165506145,0.0031484948257538598,0.0006292633352618565,10.270104893524504,0.2497486868557209,-1.9417318143628308
951413011927916,0.0025926705274696956,0.0054556193704222685,-0.008051718153933473,10.218260015498222,0.22869781403313444,-2.5287559183079034
951413012904375,-0.0005520360094909415,-0.003207640635374296,0.0010294610954223345,10.239142987355219,0.16142416137988486,-2.9109764748676428
951413013881093,-0.008405761235077174,-0.003491272433384924,-0.01566450261412903,10.246547202487395,0.15429056994770152,-2.8966887107044577
951413014857760,0.006351477971278769,-0.003954632072397693,0.006372452244231522,10.243457127322417,0.19385502013763528,-2.7299875246524397
951413015834479,0.0142500374216229,0.0007585011958745975,-0.014596305585129258,10.259948790458155,0.26592350754795374,-2.3275243119633666
951413016811197,-0.01871911574600707,0.0008847428578916155,-0.0005733359490299058,10.286597781938976,0.2785284371409263,-1.8167059248238178
951413017787916,-0.012510495207909589,-0.0006694792727611095,-0.011390711496224778,10.3048606193498,0.281757975190208,-2.0762825486310037
951413018764375,0.0026116647332639544,0.0028669649548086415,-0.0012403322159640347,10.225274443420417,0.23675022566646511,-2.7478482239953146
951413019741093,-0.006659198512352992,-0.005390737155214564,-0.0059153240959339305,10.25584193298628,0.18288001531074694,-2.9133584316541024
951413020717812,0.0026617527608198584,-0.041266465296334175,-0.016867101898420788,10.274125136497512,0.16145120484361536,-2.890734812877202
951413021694531,0.01879839484571671,-0.006672934139248795,-0.0011069329625772093,10.240971148043146,0.16423221333159824,-2.5942458119910374
951413022671250,0.0007350991782653351,0.005578343333095364,-0.009120918184838407,10.27039022647797,0.29121441279939536,-2.137009522880112
951413023647656,-0.019630791137805095,-0.0007824750908605469,0.005571053722005402,10.290900501554221,0.30490420687333847,-1.7059687935868826
951413024624375,-0.005624406158836463,0.0026444377527196175,-0.011257312242837951,10.235807158265564,0.23133306141523022,-2.3406220918722154
951413025601093,-0.00042603292983303236,0.001974386820813666,0.0026322581398745748,10.210179724738783,0.21385375520023,-2.9312191309969764
951413026577812,-0.007199808830783108,-0.007442890991178227,-0.013126907794063844,10.246737036721488,0.1970336509683196,-3.0276675039318337
951413027554531,1.1692648610620057e-06,-0.013524590424938403,0.0031668581553270414,10.236727221325246,0.15812621708766247,-2.7026009864415133
951413028531250,0.016906594018708282,0.00572873373253408,-0.007116920378320526,10.240920880862289,0.22649746102653207,-2.390632248860042
951413029507708,-0.007194670371774613,0.00019414642134503026,-0.003777927036029221,10.259585154167805,0.2733285356216876,-2.1393904855276786
951413030484427,-0.015671228398722856,-0.0003194153760159366,-0.0019083314848033302,10.296560661131577,0.262969184324866,-1.8619531623776187
951413031461093,0.00618943902072969,-0.0024820781013390374,-0.006583323364773224,10.286816405362321,0.2574383885411421,-2.432307545373046
951413032437812,-0.00253630289841971,-0.0041252504492077634,0.0022320603797140967,10.25381445821393,0.22811556736912303,-2.9645595670351583
951413033414531,-0.004154075681231721,-0.006248349191720865,-0.012860109287290193,10.284883696219723,0.16126507764996695,-3.0300484665794003
951413034391250,0.006495498544499974,-0.014190944472971655,0.0027656573932614004,10.21593265844322,0.20100392359214928,-2.7335594656932365
951413035367708,0.011856766691984431,0.008874228415292491,-0.0109905137360643,10.221641770410903,0.25876446383467083,-2.332287231397393
951413036344427,-0.0180434854653605,-0.002399114909105838,0.0026322581398745748,10.255356311765905,0.26163774099226206,-1.9667363957872979
951413037321145,-0.00905819083291485,0.001630542398814144,-0.0060487233493207535,10.247232949164255,0.2365281907147751,-2.021509472209151
951413038297864,0.002092636637965749,-0.0039004421355245526,-0.0023095322468689714,10.192363421344231,0.19149180654467074,-2.714507787957132
951413039274583,-0.010382714119229803,0.0009639825336350793,-0.006583323364773224,10.256446622758181,0.15394376784150424,-3.156265334511643
951413040251041,-0.00015784569181948935,-0.00936619549674549,-0.0059153240959339305,10.26326977402049,0.1566744649302711,-2.8966887107044577
951413041227708,0.013890980197819085,-0.0028153960579238267,0.0004958640818750311,10.23349692584074,0.2000644206731977,-2.544235655003211
951413042204427,0.0013963012235272971,0.007040989975051585,-0.00858631816938594,10.20250371295391,0.2839837818061091,-2.1953545403427612
951413043181145,-0.028130356215393258,0.01797501928836641,0.013717435195748263,10.281504466537545,0.26153433670063536,-2.044133090986051
951413044157864,0.0029814351958401294,0.0028766664667652635,-0.014864107093808074,10.278940992058091,0.27692396465594166,-2.125102721364493
951413045134583,-0.0019877292829975053,-0.006984617375699634,0.00837544704884424,10.20312814061799,0.19259098768472244,-2.783569622681063
951413046111041,-0.010135294246841443,0.0010217842768744886,-0.014864107093808074,10.245915541583718,0.14800003636454917,-3.1431675546027944
951413047087760,0.007809859649774713,-0.009426399091218467,0.0020986611263272698,10.255034854868207,0.13761046056693418,-2.8883528560907425
951413048064479,0.012002021184318732,0.00652141452009078,-0.0073847218869993415,10.193083261990761,0.16670042239882046,-2.5311378750943625
951413049041197,-0.013421102693120225,0.00020616470702879044,-0.002442931500255797,10.278774528845293,0.283058596874438,-1.995313912391454
951413050017864,-0.01395139310984411,0.00020256193017843707,-0.0028431292604162747,10.268737464668236,0.32373913140938504,-1.8857677595477484
951413050994322,0.0011372996599134722,0.0014549054728752076,-0.010857114482677474,10.248522571051835,0.22515229552602928,-2.5049413211377733
951413051971041,-0.00809893765837092,-0.006918400123626817,0.0010294610954223345,10.184083427303323,0.2149656631449311,-2.990755126852855
951413052947760,-0.00044441273171295714,-0.0018469842374058435,-0.009654515198385713,10.213281702584288,0.14210243988649784,-3.095538360262535
951413053924479,0.006968949171439306,0.01628624266747081,0.0027656573932614004,10.258378987113652,0.14273400125827657,-2.6228233285951936
951413054901197,-0.006442677441505046,0.014833315596503041,-0.011390711496224778,10.248703976192884,0.23489031136373534,-2.3549108501742935
951413055877916,-0.01724256465230662,-0.005312586694964418,0.0027656573932614004,10.288083118391057,0.3033045066080475,-2.0107936490867617
951413056854375,0.00032773364116677476,0.005133203851410885,-0.014462906331742431,10.27934913947776,0.23871482155347865,-2.169158980525064
951413057831041,-0.0009514230435612942,-0.002812994206690258,0.0007626625886486819,10.217677779017476,0.23699680451809843,-2.563287332739315
951413058807760,-0.013171859704488626,-0.001068732616282388,-0.011525113751516767,10.233805953446545,0.20062689565695951,-3.0157597082773226
951413059784479,0.010052806114870708,-0.009871547602418863,-0.003244330022481916,10.216958026988193,0.16613885712441406,-2.95146178712631
951413060761197,0.010152813038321789,0.008021335003746898,-0.0027097300070294495,10.194989609747708,0.21792325438717494,-2.5620963543460853
951413061737916,-0.008682372863500935,0.009682548324415138,-0.009521115944998885,10.251925406465116,0.27319649535550017,-2.238220815248995
951413062714375,-0.015260637095026766,-0.005603733000359827,-0.00017213518696426277,10.305071052691293,0.2557353709663179,-1.9226801366267268
951413063691093,0.004177583203600616,0.002893506513947993,-0.012993508540677016,10.284081538284392,0.2565937408376795,-2.1727309215658606
951413064667812,-0.006914214895134096,-0.004947999524763653,-0.0008401344558035567,10.251255540208136,0.17950571151882758,-2.7621369822973922
951413065644479,0.004590105136228045,-0.003188313659451567,-0.011525113751516767,10.235720607548398,0.1825204863999003,-3.1824608943293398
951413066621197,0.01430680108516172,-0.008076869007001067,0.004769655199779282,10.2338543119603,0.2140239745521663,-2.8038122788103967
951413067597656,0.005221976205842892,0.011642122533695409,-0.012593310780516538,10.223381346076488,0.25990600178898293,-2.370390586869601
951413068574375,-0.01778640803053859,0.0005069364763903068,0.0015640611108748029,10.281625306725022,0.2830013262535159,-2.038180187297688
951413069551093,-0.006281752126435823,-0.00013767971497073155,-0.011123912989451127,10.306365415357853,0.25922580585451327,-1.9869790519166315
951413070527812,0.004865489542952932,-0.0008714519406935842,-0.004312527051481688,10.306056514574237,0.2396606878747549,-2.3537198717810637
951413071504531,-0.01182699477596295,-0.0031173687529021275,-0.0036445277826423943,10.231827393158763,0.19836768084680398,-2.9216932921289245
951413072481250,0.003531797336744704,-0.001173424635671885,-0.008452918915999114,10.295806502498804,0.17439171393867345,-3.0205236218502405
951413073457708,0.0206636208030889,-0.01103702525186392,-0.00017213518696426277,10.237239662096334,0.20823455458543538,-2.6752144482305873
951413074434427,-0.005385366152211685,0.01415373330765333,-0.013261310049355832,10.204067067740052,0.2528302767971032,-2.3120455694069517
951413075411093,-0.018834054142910082,-0.002645772789584728,0.004636255946392456,10.22385717742647,0.3080939733260411,-1.995313912391454
951413076387812,0.012168715483367652,-0.023252265470257917,-0.01766850042064691,10.256715171608036,0.2757681100425484,-2.097715189014674
951413077364531,0.001971616363679429,-0.0075919597253607755,-0.00017213518696426277,10.284608914089793,0.2503938847415044,-2.3513389091334966
951413078341250,-0.011973680055248128,0.002163337065075493,-0.005781924842547103,10.234338684673796,0.17572733499978874,-2.9133584316541024
951413079317708,0.010840892738497674,-0.002956160993396436,-0.00043893369373791533,10.217937117064471,0.1420928954471104,-3.102682242344127
951413080294427,0.013603617627399743,-0.003711491891262725,-0.010723715229290649,10.192373718004687,0.16902963463454754,-2.5728121774684745
951413081271145,-0.01291068330534018,0.00572873373253408,-0.007116920378320526,10.215301608103546,0.3055080419799118,-2.146535361748164
951413082247864,-0.012092084763074648,-0.0035202248732737595,-0.004179127798094864,10.256382513208258,0.29509619361006095,-1.908391378324649
951413083224583,0.007640681238089733,0.00016528808847854077,-0.006983521124933702,10.316354879164031,0.2231231572346127,-2.2394107995033323
951413084200989,-0.012753761153599191,0.0007596080144690355,0.0002280625731962152,10.281220764611767,0.21317355926576032,-2.547807596044007
951413085177708,-0.004033773119771229,0.0006453846381357777,-0.012459911527129715,10.259736686425155,0.1791414103882872,-3.0348113860134265
951413086154427,0.010068164782976112,-0.00740069270737181,0.006372452244231522,10.28850564894828,0.14834206625105276,-2.8871628718364057
951413087131145,0.0033840738367417757,-0.0009736480018271662,-0.01566450261412903,10.198862052283175,0.21336446000730164,-2.40492100716212
951413088107864,-0.014990427103985734,-0.005713237751732378,0.0023654596331009223,10.295380888481702,0.3023103209422535,-1.863144140770848
951413089084583,0.0011351268914079598,0.0002435326557510331,-0.012993508540677016,10.28385895409869,0.2569500887114634,-1.9060094215381895
951413090061041,0.001695448647558847,-0.0008245616645434966,0.0008960618420355091,10.224063507395343,0.20979766429121002,-2.3977771250805273
951413091037760,-0.015021897004467249,0.0030991936688542876,-0.004847127066934158,10.217265332947067,0.19624627388577898,-2.725224605218414
951413092014427,0.005268676427467858,-0.007389996086944217,-0.007251322633612518,10.265071715933022,0.16607204206410447,-3.0014719441141366
951413092991145,0.007516159489269446,0.0008667109146080174,-0.002576330753642624,10.276063349530572,0.14610611937638265,-2.7764257405994703
951413093967864,-0.012516226685940863,0.004915601091428381,-0.009120918184838407,10.22049942403789,0.24336429474852844,-2.258462477239436
951413094944322,-0.00863303675889836,-0.0031932114689410514,0.0026322581398745748,10.254512632479866,0.29027491120864296,-1.947684718051194
951413095921041,0.0057725682100979135,0.002512294143226228,-0.011123912989451127,10.252180870062807,0.22929596853885797,-2.08104546806503
951413096897760,-0.009828390730312485,-0.0011987652691944522,0.003433656662100694,10.22602416704333,0.19765566790071087,-2.5620963543460853
951413097874479,-0.011856840463717818,0.005568726898645173,-0.010189115213838178,10.219421468143551,0.2152074697768707,-2.8097661766376523
951413098851197,0.0034252104551025547,0.009225408160148019,0.013317237435587785,10.254118109169942,0.17073105969854166,-3.083631558746916
951413099827916,0.0016478247449181096,0.0056469714659176645,-0.016199102629581495,10.243925026837298,0.22278271720254092,-2.494225498015384
951413100804322,-0.019110551185656726,0.0011816970037410496,0.0028990566466482255,10.283360402496559,0.2735067082303803,-2.0060307296527355
951413101781041,-0.0008436659779372714,0.0005527199339459562,-0.008051718153933473,10.305180643687057,0.2750045940584763,-1.7774125850972726
951413102757760,0.004334281716821731,0.0021982090555418207,-0.0019083314848033302,10.241091087695194,0.21220542170044734,-2.379916425737653
951413103734479,-0.014744299028270246,-0.0020587791569343225,-0.003777927036029221,10.201823953313964,0.17250416035283167,-2.6490188884128907
951413104711197,-0.004834339124106009,0.006633330152212816,-0.009654515198385713,10.25161733747143,0.22593271338686374,-2.8133381176784487
951413105687916,0.010979949754491349,-0.005198269211608813,0.0007626625886486819,10.262301967089924,0.18291819572469506,-2.884780915049946
951413106664375,-0.006962809078782016,0.006195396224229043,-0.01419610782496878,10.231325757202207,0.21090320883358643,-2.4620760403704316
951413107641093,-0.019491457932975673,-0.00435868911838611,0.005704452975392228,10.283519571498323,0.28672561451689443,-1.9274430560607527
951413108617812,0.008956507515485752,0.0018589625188636235,-0.010189115213838178,10.28629277317222,0.27850457471425855,-1.834566624166692
951413109594531,-0.007874412602401725,0.014279983999186263,0.0007626625886486819,10.268301858941909,0.2407958624267423,-2.3965861466872975
951413110571197,-0.023255216956132033,0.005560311389811766,-0.011123912989451127,10.245556310650617,0.21171385385161248,-2.7478482239953146
951413111547656,0.007658076232351069,0.0005081374020070913,0.0016974603642616283,10.23590094767001,0.19106705242794628,-3.03243042336586
951413112524375,0.00538232509472711,-0.0002628145583933114,-0.010322514467225007,10.25317585349114,0.14976041021418976,-2.718080723136821
951413113501093,-0.013036689520400943,0.0018830081197470595,-0.007518121140386169,10.224191209501734,0.27317581529409435,-2.25369955780541
951413114477812,-0.00732321193816363,-0.00312458333611875,-0.004445926304868515,10.218176791897122,0.3035351789461679,-1.8381385652074884
951413115454531,0.007229731714962834,0.006383060465367656,-0.008051718153933473,10.27456327843195,0.27952680053523166,-1.961973476353272
951413116431250,-0.01129659530639631,0.0019587567287636365,0.0008960618420355091,10.27191116115265,0.24290136154605507,-2.604961635113427
951413117407708,-0.010130339578066437,0.0010434280265243557,-0.012459911527129715,10.256455620497658,0.19742022467109596,-2.7383223851272627
951413118384427,0.00938352746090375,0.0015883707476247637,0.003968256677553163,10.316423001467328,0.17689432656339957,-2.932410109390206
951413119361093,-0.004441752267719225,0.00794558639473032,-0.011123912989451127,10.211766187185017,0.17372683135473366,-2.6263952696359905
951413120337812,-0.010483697557637046,-0.0029068688660127797,0.005036453706552933,10.260206511512282,0.2529241366493425,-2.2417927562897915
951413121314531,0.009362972823489205,-0.0034443821572348364,-0.010455913720611833,10.274344107341369,0.2893258638503041,-1.7655047894427613
951413122290989,-0.004414720508441456,0.005658904674094994,-0.00017213518696426277,10.25323904166267,0.29851981343794676,-2.0227004506023802
951413123267708,-0.013290658542446173,-0.002474863518122415,-0.005781924842547103,10.220338124112311,0.20473775629491525,-2.6156784523747088
951413124244427,-0.0012312661833165852,-0.004080882763930627,-0.007651520393772996,10.268512663018337,0.17697705079362047,-2.8704921567478685
951413125221145,0.010560433920863836,0.003521282658126302,-0.0021761329934821463,10.299932860626345,0.1899318778759589,-2.9895641484596256
951413126197864,-0.01199595237236533,0.007542730274358689,-0.011658513004903594,10.221699354788802,0.22630178806529702,-2.537090778782726
951413127174531,-0.0042572703927482615,-0.003449288996240236,0.0037004551688743464,10.298454665015136,0.28548703567328026,-1.961973476353272
951413128150989,0.006952228745896493,0.005792549133373326,-0.014729704838516083,10.26107001011162,0.2343861023641452,-1.8405205219939478
951413129127708,-0.009297791830354802,-0.0018663202428444883,0.0028990566466482255,10.259106739728344,0.21102093111249348,-2.3739625279103973
951413130104427,-0.011600942582229616,0.005396701779072505,-0.014596305585129258,10.213353289504258,0.1758609651204079,-2.8133381176784487
951413131081145,0.005150178252665333,-0.0027877476801900377,0.0035670559154875195,10.278591235870485,0.13162477181958682,-2.9074045338268464
951413132057864,0.007133474905759318,-0.017371422856319863,-0.012058710765064071,10.269638190520674,0.12919374647486398,-2.941935948258258
951413133034583,-0.009578704150661699,-0.00434176399369695,-0.007116920378320526,10.25800209055455,0.19791497488519275,-2.3680086300831418
951413134011041,0.0010210812248052639,0.004602716929360757,0.0002280625731962152,10.301534916654907,0.3023246389295338,-1.8524273235095663
951413134987760,0.003253900191572195,0.004380189727271733,-0.0097889174536777,10.292632633499759,0.2247021747820994,-1.9500666748376532
951413135964427,-0.017260511818648988,-0.0029862202518797097,-0.003777927036029221,10.266486343879865,0.2237778995597836,-2.6418740121924054
951413136941145,-0.0007350599595698077,0.005391889047089452,-0.015130905600581725,10.224334364661866,0.19714978206459569,-2.9407449698650283
951413137917864,0.009388730769392357,0.00014135419771857136,0.00516985295993976,10.295647753751533,0.12092179945363053,-2.8871628718364057
951413138894583,-0.010268787667886596,0.0008834302221513645,-0.015531103360742203,10.293279938061069,0.19511428037085438,-2.679977367664613
951413139871041,-0.009557705646919115,-0.0038487391273914115,0.003433656662100694,10.251325287211312,0.26709527133125827,-2.343004048658674
951413140847760,0.009346116703489308,0.0042310092829657186,-0.011658513004903594,10.277347391409176,0.2152775541845355,-1.8655251034184148
951413141824479,-0.00825011944282537,0.002756250248303391,0.0011628603488091599,10.268713802862445,0.2686202019512839,-2.094143247973878
951413142801197,-0.013437063223528533,-0.0011998720877888901,-0.011390711496224778,10.231660478674845,0.19276757043898343,-2.6513998510604573
951413143777864,0.005140325669207805,-0.0025639254454618825,-0.0009735337091903838,10.247672207083173,0.16739811868583235,-2.901450635999591
951413144754375,0.0037873846128764492,0.009736653183781847,-0.0035111285292555704,10.322718230146739,0.17453488982687923,-2.9133584316541024
951413145731041,-0.016216715237825537,-0.0038582704843351722,-0.012326512273742887,10.274772634078385,0.1809495090912633,-2.574003155861704
951413146707760,0.0032989676241835715,-0.0025038069284953344,0.005704452975392228,10.258566394443498,0.24821421179630776,-2.19773649712922
951413147684479,0.004566398079948966,0.005925893668483501,-0.014729704838516083,10.276946486427233,0.2559644521218073,-1.7512160311406835
951413148661197,-0.015659615953253995,0.0013344892544133347,0.00516985295993976,10.255958990460769,0.2826752055369236,-2.282277074409566
951413149637916,-0.004169386689287632,-0.00043725055871546346,-0.014997506347194902,10.224434073242657,0.14947405976597736,-2.932410109390206
951413150614375,0.006067160779619509,0.0046472053542772765,0.00516985295993976,10.259691980912262,0.18023681467189467,-3.1074451617781533
951413151591093,-0.0020669105944556344,0.011906615569828001,-0.012726710033903367,10.25012804514893,0.17960434359076058,-2.6883122281394356
951413152567812,-0.01565090569249061,-0.008513387162706325,0.0004958640818750311,10.264712724015919,0.23483463192544415,-2.3965861466872975
951413153544479,0.010285434847767738,0.0012094485180131013,-0.008719717422772768,10.287358962111975,0.27215995287544587,-2.121529786184804
951413154521197,-0.012117269747795308,0.022553316201259496,0.007173850766457641,10.2991129832849,0.24858328647474104,-1.9214891582334972
951413155497656,-0.018598062925757098,0.0033735179860987993,-0.003777927036029221,10.291366024235353,0.23119465774671816,-2.4442153410275576
951413156474375,0.0037986521367340954,0.001636556056413982,-0.00538072408048146,10.260754453882528,0.18041339742615567,-2.9752753901575475
951413157451093,0.0016902125177977393,0.004496823984354476,0.0031668581553270414,10.263178898699973,0.19710523824832288,-2.9740854059032102
951413158427812,-0.011734083467175246,0.008331808285065037,-0.012326512273742887,10.239505781777387,0.23087490043245057,-2.6835493087054094
951413159404531,-0.006365723310306951,-0.008208017508023484,0.004903054453166108,10.192877759804814,0.2611413995955343,-2.3382411292246483
951413160381250,0.012923914923775022,0.0030234450598377103,-0.013261310049355832,10.224434917036174,0.28915882553543054,-1.8905306789817744
951413161357708,-0.01460651375862208,0.00157153972995795,0.0020986611263272698,10.252864366428918,0.2604373412343969,-1.9726902936145536
951413162334375,-0.01451591166068947,0.008469965552158263,-0.011791912258290422,10.189023751121281,0.22002716232385675,-2.7716628211654446
951413163311093,0.0074029538861549275,-0.0035912548573296295,0.0026322581398745748,10.289486170482354,0.13603084587186684,-3.1788889532885434
951413164287812,-0.0005825421750798403,0.006277158490845459,-0.005113925573707809,10.276357822616067,0.18656711852342694,-2.831198817021323
951413165264531,-0.013040573422494548,0.005739551092601055,-0.0059153240959339305,10.230339076121393,0.19890538369454258,-2.5192300794398514
951413166241250,-0.0017632190658053001,0.002057444120069212,-0.0028431292604162747,10.202760818480229,0.28152571299765583,-2.2501276167646136
951413167217708,0.006311089018606649,0.004285114142332428,-0.005648525589160276,10.255736479917312,0.26038166179610567,-2.014365590127558
951413168194427,-0.019775438023905235,0.002370234175114488,0.0024988588864877474,10.288774505569249,0.23036015163022353,-2.176302862606657
951413169171145,-0.005099156057784813,0.0062326700659289394,-0.010055715960451355,10.235837680887629,0.20931723206439354,-2.7573740628633665
951413170147864,0.0040965020201615115,-0.00449705220262515,0.005036453706552933,10.252642431981581,0.1348527186862376,-3.168172136027262
951413171124531,-0.00642301025312206,-0.0005768145685712882,-0.01579890486942102,10.270263886256378,0.16390768246943774,-2.8371527148485787
951413172100989,-0.009416058340968213,-0.00821643301685689,0.003968256677553163,10.199562329609401,0.18352271363274325,-2.432307545373046
951413173077708,0.009879663631935714,0.003175036384893211,-0.011123912989451127,10.241969738698419,0.216224014996994,-2.048896010420077
951413174054427,-0.006391470826800181,0.0030341773423982555,0.0026322581398745748,10.2538279275895,0.22942482643978343,-1.9845970951301724
951413175031145,-0.017938126873790976,0.004029045644549159,-0.0045793255582553425,10.243854061454131,0.2276389989808441,-2.4287356043322497
951413176007864,0.00473036877377827,0.0004528316170235969,-0.004445926304868515,10.23873249186468,0.16835830166618973,-3.075295704133201
951413176984583,0.002614226681034132,-0.0007284909711332192,-0.003244330022481916,10.299824101415703,0.16598772797945183,-3.064579881010812
951413177961041,-0.010517634664948521,-0.002120098599517655,-0.010589312973998658,10.238667708791738,0.17368228886666007,-2.6597347115352794
951413178937760,0.0013257750166952476,-0.013261307343938513,0.0028990566466482255,10.258479273711082,0.23133147023259926,-2.3418130702654447
951413179914479,0.009610961727789559,0.007967230144380189,-0.008719717422772768,10.297433398740141,0.2735798866930146,-1.951257653230883
951413180891145,-0.017254351526972796,0.0015823570900249256,0.0033002574087138688,10.264169745652573,0.25671782651891123,-2.0798544896718
951413181867864,-0.008815151119648685,0.009012591499531533,-0.010322514467225007,10.239992736685819,0.22972063567348916,-2.6549717921012537
951413182844322,0.006997154258417472,-0.00042290646978864946,0.0012972626041011504,10.225881946619568,0.177823288351515,-3.1288787963007167
951413183821041,-0.010544893403739484,0.005775709086190598,-0.016600303391647142,10.270958887812009,0.17927185814364444,-2.9371730288242324
951413184797760,-0.005579085401835568,-0.011051454418297165,-0.001774932231416503,10.199346118120108,0.19185133545551739,-2.4454053252818944
951413185774479,0.01162166245127935,-0.00088226930076056,-0.005514123333868287,10.25004752426157,0.27094523513030033,-2.1382005012733414
951413186751197,-0.00031346125408575646,0.006029290655233868,-0.003244330022481916,10.30791742543629,0.2723667614586993,-1.9667363957872979
951413187727916,-0.01590933503369604,-0.014492917167949957,-0.0013747344712560252,10.299673252546723,0.22780126374782475,-2.3072826499729255
951413188704375,0.006566442548092589,0.00010276772027842398,-0.013928306316289964,10.216723826241854,0.25571559928606824,-2.8300078386280934
951413189681041,0.002901510150670809,-0.0015703521759501096,0.006372452244231522,10.243220030610642,0.19089206085631624,-3.163409216593236
951413190657760,-0.010280740876362465,0.0069760587261019835,-0.01579890486942102,10.225600261770216,0.17469238237416618,-2.795477418335574
951413191634479,0.005705785571398864,-0.018307373567121005,0.0016974603642616283,10.210503042542092,0.23718293303994603,-2.423972684898224
951413192611197,0.016097554689949577,0.006603270893729541,-0.012993508540677016,10.251079145869076,0.28771602332624424,-2.078664505417463
951413193587916,-0.011039160926107803,0.005266660096644525,0.0003614618265830406,10.29033450014103,0.263954820914522,-2.0167465527751247
951413194564375,-0.011329737354962819,0.005287197027699955,-0.012058710765064071,10.271467019844485,0.24562509941311583,-2.3513389091334966
951413195541093,0.006057779406021704,0.00046484990270735703,-0.0031109307690950928,10.252136187782863,0.2101952866339115,-2.9919461052460847
951413196517812,-0.0007087126109460495,-0.00023756803189309096,-0.007518121140386169,10.24663080771476,0.13604198149388522,-3.1705540928137212
951413197494479,-0.009852587176221601,0.0015005948234085107,-0.005781924842547103,10.20349028337646,0.17144216426347852,-2.5513795370848036
951413198471197,0.012310176923740285,-0.00838464954243339,9.466331980938805e-05,10.229392030957131,0.3090652919284169,-2.1608241200502416
951413199447656,0.0064420314473632575,3.0852205018775417e-06,-0.010189115213838178,10.264519369312978,0.2782961749483741,-1.990550992957428
951413200424375,-0.015125740757436874,-0.003989504062864021,0.0024988588864877474,10.27318438123972,0.24942892954145332,-2.181065782040683
951413201401093,-0.004578930953531835,0.004584779093099506,-0.01646590113635515,10.319387273550188,0.23948887734018762,-2.482317702360873
951413202377812,0.005284333150199882,-0.0021117771977065946,0.005036453706552933,10.282845415733481,0.1899032432295974,-3.0109967888432965
951413203354531,-0.004967165040303255,-0.0023185802007232434,-0.017935298927420566,10.260571840217226,0.14096666951512898,-3.0538630637495303
951413204331250,0.0025004160802138517,-0.002785336799440553,0.0038348574241663354,10.2012185801585,0.21079026010257226,-2.546616617650778
951413205307708,0.01306756652767425,0.0017374304522913971,-0.008987518931451584,10.2538207371476,0.27811322879178846,-2.12748368401206
951413206284375,-0.007851362407654505,0.001957555803146852,0.0007626625886486819,10.258234420544351,0.3081671517886754,-1.9405408359696013
951413207261093,-0.01567932191323395,0.00044681795942375893,-0.005113925573707809,10.274719535603536,0.27320444994045584,-2.2322669174217395
951413208237812,0.004596379416988516,-0.0007561393488670086,-0.006315521856094408,10.249416803633808,0.21430714396331593,-2.5918638552045783
951413209214531,-0.003343724285257479,-0.0007044453702497832,-0.0005733359490299058,10.261702675619047,0.17296163986233576,-3.1991306152789845
951413210191250,-0.005881499980905687,0.009895450062538055,-0.0005733359490299058,10.229630744444062,0.13410252532619643,-2.8371527148485787
951413211167708,0.009918393483579573,-0.0010640139913216807,0.0037004551688743464,10.222591153567786,0.22903666155437608,-2.2751331923279734
951413212144427,0.007353070294147236,0.006610485476946164,-0.0121921100184509,10.285543902318437,0.2890808748531026,-1.9488756964444236
951413213121145,-0.017386419844398357,0.002523026425786773,0.004769655199779282,10.281671709766961,0.24953233383308004,-2.10366908684193
951413214097864,-0.007754093919884363,0.005144021211477861,-0.013261310049355832,10.293528666490177,0.2108173035663028,-2.5263749556603368
951413215074583,0.008065396717928542,-0.004127661329957248,0.0019642588710352808,10.268308321367826,0.22611725072608038,-2.6752144482305873
951413216050989,-0.007080913870543271,0.0033182031715993892,-0.009922316707064529,10.273427599846027,0.18395314835031765,-3.0026619283684743
951413217027708,0.0026286044331319696,-0.008414708800916666,-0.003244330022481916,10.23108694892656,0.16530435100791946,-2.6835493087054094
951413218004427,0.017191432422614714,-0.0016689454602333382,-0.0045793255582553425,10.202584381343474,0.24336429474852844,-2.258462477239436
951413218981145,-0.006943347554739055,0.00587911510245688,-0.005113925573707809,10.307705874184983,0.26905450050739577,-1.7690767304835577
951413219957864,-0.01845327990947296,-0.000445751145055301,-0.0012403322159640347,10.253650694576187,0.24710548621686865,-2.1358185444868822
951413220934583,4.5593627380096423e-05,0.012274805516879119,-0.01593230412280785,10.210876429600338,0.21905047568240582,-2.6109155329406826
951413221911041,-0.002015808357036012,-0.001764021045172644,-0.00043893369373791533,10.210509117550451,0.21278062348885846,-2.841914640143712
951413222887760,-0.008678461617875645,0.005959555703817129,-0.0109905137360643,10.24493437439976,0.09584406618776706,-2.918121351088128
951413223864479,0.008483145350365259,-0.01071602550513105,0.00597125148216588,10.243931511132148,0.20728550722709646,-2.493034519622155
951413224841197,0.01756755424568006,0.0006441837125189932,-0.012593310780516538,10.27813360617371,0.24843692954947252,-2.031035311077203
951413225817864,-0.018709864543953136,-0.0009448837759830232,0.0022320603797140967,10.27462086280504,0.2700878619503874,-1.8881487221953153
951413226794322,-0.014497654691173947,0.002270439965214475,-0.00858631816938594,10.246777126619202,0.22896666545700375,-2.3275243119633666
951413227771041,0.006191329259875352,0.005408634987249835,0.0014306618574879758,10.23308834413176,0.2035150852930133,-2.638302071151609
951413228747760,-0.00704991049524556,-0.006431285778382855,-0.003777927036029221,10.24772982736483,0.20912633132285222,-2.900260651745254
951413229724479,-0.005479704585672954,-0.0002411708087434443,-0.007918318900546647,10.280353804928488,0.1472593887720946,-2.8050032572036265
951413230701197,0.014034772928743812,-0.006105267482521117,0.0030334589019402163,10.2121452905395,0.24427675287555028,-2.468028944058795
951413231677916,0.007747634150925801,0.009004175990698126,-0.011257312242837951,10.304298960330035,0.29510732923207933,-1.9000565178498265
951413232654375,-0.02135635194607499,-0.0023979139834890534,0.0027656573932614004,10.29203547807196,0.289308364825961,-1.7786025693516097
951413233631041,-0.005496942064858737,0.005561512315428551,-0.0109905137360643,10.271963327140067,0.2501520781095648,-2.5323278593486998
951413234607760,0.003558057177032587,-0.0031956133201746202,0.0023654596331009223,10.211570741758596,0.21763213171926885,-2.7799976816402667
951413235584479,-0.009729106242022627,0.00025555094143479325,-0.011658513004903594,10.270432338899791,0.18161538703845267,-2.9681315080759547
951413236561197,0.00078036417982911,-0.0070483386695165354,0.0012972626041011504,10.213212725509864,0.14385008693148904,-2.679977367664613
951413237537916,0.011228582748575683,-0.0027347496394177656,-0.005247324827094636,10.208213906700324,0.24691458547532733,-2.27870513336877
951413238514375,-0.007339542917448592,0.0057539802590343,-0.004312527051481688,10.295388221538676,0.2821381854906597,-1.7917003492604582
951413239491093,-0.01938510798767299,0.00020376285579522152,-0.0027097300070294495,10.235815615009223,0.26270192408362764,-2.0619937903289256
951413240467812,0.0037969469617861362,2.5929895768529083e-05,-0.007651520393772996,10.251222578895954,0.1928964283399089,-2.5549514781256
951413241444531,-0.002414732001325417,0.0009039847563079137,0.0015640611108748029,10.257897715726767,0.20807547085551747,-2.794286439942345
951413242421197,-0.011311065136615159,-0.004250300215123913,-0.011658513004903594,10.288626055736186,0.13505157268453538,-3.0193326434570116
951413243397656,0.008626579861859178,-0.013072442177183117,0.009176845571070359,10.221181659003797,0.14758232845162414,-2.563287332739315
951413244374375,0.011729340103955125,-0.003260450462101875,-0.019538095971872806,10.270777420809782,0.28656971315223845,-2.044133090986051
951413245351093,-0.016324783931204623,0.00332773452854315,0.005837852228779054,10.265499245187554,0.24756523838227928,-1.7917003492604582
951413246327812,-0.009730676836059651,0.0019852982879029883,-0.010857114482677474,10.279282939881197,0.26126707513119785,-2.24417471307625
951413247304531,0.0051443988392757154,-0.002812994206690258,0.0007626625886486819,10.222070398668112,0.176075728288617,-2.652590829453687
951413248281250,-0.005745435000291319,0.002430446799103382,-0.005514123333868287,10.28351948495794,0.1650148181944451,-2.900260651745254
951413249257708,-0.0067955876171614535,-0.0022019549731564165,-0.004980526320320982,10.253169219909797,0.13755796216570573,-2.92764718995618
951413250234427,0.016411573894409778,-0.0060101918975818125,-0.0011069329625772093,10.24796768221948,0.23006425541442452,-2.3977771250805273
951413251211093,-0.0019250377885462139,0.003264098312232679,-0.01593230412280785,10.26518097503979,0.22231887561891125,-1.9488756964444236
951413252187812,-0.020563447096022598,0.0011997379765405635,0.004903054453166108,10.267500076633453,0.2975097186022414,-1.8869587379409782
951413253164531,0.0006030066067358067,0.006915855131629005,-0.007784919647159819,10.214363364365045,0.23591890058703316,-2.4775547829268474
951413254141250,0.0010511482087420443,-0.005685589373998589,0.005436651466713412,10.190096206981506,0.14234424651843744,-2.9145494100473317
951413255117708,-0.011187806245687855,-0.007095143868160192,-0.01860329819625986,10.296110410337555,0.12205697533381707,-2.930028152603747
951413256094427,0.004632141235791432,-0.008749236712634155,0.0037004551688743464,10.265551359653418,0.18427131448195427,-2.764518939083852
951413257071145,0.015712295929223425,0.0013117386861690294,-0.012058710765064071,10.22416913762394,0.231356923841898,-2.3227613925293404
951413258047864,-0.012232165678765129,0.0017903343860413226,-0.0031109307690950928,10.292858038006651,0.2665359787127584,-1.8690980385981038
951413259024583,-0.017399159017576202,-0.0019408588967283651,-0.00538072408048146,10.292427221048124,0.27346852914463143,-2.034607252117999
951413260001041,0.005125153926738748,0.0012443114789635128,-0.004847127066934158,10.235501152339932,0.20828546180403287,-2.637111092758379
951413260977708,-0.003993441989565337,-0.006525160437705376,0.0004958640818750311,10.236115501370739,0.19127067997413696,-2.8800179956159204
951413261954427,-0.0038850981151242704,-0.00783733160271645,-0.012726710033903367,10.285155037299923,0.15789713593217305,-2.874065091927557
951413262931145,0.014303935880332958,-0.005952484261364749,0.005303252213326586,10.2296577106839,0.17014790598157328,-2.6275852538903273
951413263907864,0.010131979076668636,0.005658989751601425,-0.014864107093808074,10.327905533981184,0.24950528904115032,-2.1239117429712637
951413264884583,-0.01990406162088931,-0.0013491466391172522,0.0014306618574879758,10.260020489866315,0.2762135442206787,-1.7643138110495318
951413265861041,-0.004695526590024467,0.005053964175667421,-0.008452918915999114,10.23158720111976,0.2635634749920519,-2.309663612620492
951413266837760,-0.002154540180461847,0.0034179973814994023,0.0011628603488091599,10.231435718932905,0.19237622451651334,-2.9443169109058247
951413267814479,-0.0021650407369987116,-0.007582249183888238,-0.013794907062903138,10.251731509058734,0.18403109903264564,-2.9443169109058247
951413268791197,-0.001341494072072739,-0.011465333715881586,-0.0036445277826423943,10.277478403983046,0.16638861834130933,-2.764518939083852
951413269767864,0.01862868538065181,0.006527428177690618,-0.006716722618160048,10.231944698615244,0.1810560944199528,-2.494225498015384
951413270744322,-0.004430740135280206,0.006657375753096252,-0.006983521124933702,10.297398984106026,0.25303072330623116,-2.162014104304579
951413271721041,-0.016583346854665622,-0.0046558490813813575,0.0020986611263272698,10.312771300942206,0.27732803738306105,-1.8226598226510735
951413272697760,0.006574923967904138,-0.004134987623297337,-0.01366150780951631,10.271433819516304,0.25396704385992075,-2.3537198717810637
951413273674479,-0.0041271886652816244,-0.0025242497525284173,0.003433656662100694,10.227202215403274,0.19232531729791585,-2.982420266378033
951413274651197,-0.009072776308066157,-0.00244011226729547,-0.01673370264503397,10.250972762688725,0.17681955824633352,-2.9883731700663962
951413275627916,0.009406058580151288,-0.014610837428155913,0.0002280625731962152,10.241687929575008,0.16519935553366175,-2.7621369822973922
951413276604375,0.017014686118032887,0.0072215247104800056,-0.017935298927420566,10.208614413296713,0.245660097461802,-2.3251433493158
951413277581093,-0.017001950710651498,0.003131663808087046,-0.0012403322159640347,10.282634331541368,0.2688683719855482,-1.908391378324649
951413278557812,-0.010775664672788211,0.004593100494910567,-0.0008401344558035567,10.295444251892334,0.31056636012177485,-1.9298240187083195
951413279534479,0.004606511119094187,-0.0036513733742961772,-0.0040457285447080375,10.204572442419968,0.25597967849024383,-2.6323481733243534
951413280511197,-0.010117483005092605,-0.0006370181630442667,-0.007784919647159819,10.251745214812114,0.1718312375300421,-3.152692399331954
951413281487656,-0.0005680215410929769,-0.007418845390294791,-0.010455913720611833,10.259280297876664,0.15664264924684687,-2.9205023137356947
951413282464375,0.015223046651146007,-0.006924413781226655,0.0003614618265830406,10.207650058089497,0.18450675903976838,-2.588291914163782
951413283441093,0.0037792692325744857,0.006361416715717789,-0.010455913720611833,10.237746436318064,0.2171794257576576,-2.226313019594484
951413284417812,-0.01817342899561403,-0.003990704988480805,0.0023654596331009223,10.280454045534293,0.25687054684650446,-1.9655454173940683
951413285394531,0.0008579985757976189,0.00500226116753428,-0.01419610782496878,10.256767553852773,0.2888852018918675,-2.0953342263671075
951413286371250,-0.0018665119206581007,-0.0063651626333323845,0.0035670559154875195,10.213752024929352,0.2296299568583126,-2.722843642570847
951413287347656,-0.011462019400057118,0.003016230476621088,-0.014062708571581954,10.261940147957695,0.13730979213144145,-3.113399059605409
951413288324427,0.006464770289664265,-0.00443925045938574,-0.003244330022481916,10.25281675916891,0.16981064831476342,-2.8800179956159204
951413289301093,0.014795383409008926,0.0036295864838820683,-0.004847127066934158,10.226145025097544,0.2191236541450401,-2.5561424565188298
951413290277812,-0.009465145805857191,0.0031906664769432405,-0.009387716691612062,10.255176946934231,0.27693351042352826,-2.1179578451440078
951413291254531,-0.01261574783606408,-0.0025555099366284754,-3.873593357743736e-05,10.245704075983049,0.26639757637244554,-1.9726902936145536
951413292231250,0.0021867069082605103,0.005150034869077699,-0.012593310780516538,10.282652065922482,0.23254618664954563,-2.3251433493158
951413293207708,-0.006772160160429831,-0.005974128011014617,0.0028990566466482255,10.230488415598558,0.1733227599558134,-2.9288371742105173
951413294184427,-0.0015166502131894928,0.0006417818612854243,-0.012860109287290193,10.258238522886188,0.1408775818825834,-3.120543935825894
951413295161145,0.009934916866241702,-0.007671405218250053,0.005704452975392228,10.251842113078112,0.15332561474765044,-2.7264155836116433
951413296137812,0.006815146663265485,0.009116082593304245,-0.013528108556129487,10.258990071668604,0.21697261717440416,-2.38110640999199
951413297114531,-0.017244601771527448,-0.004519896877891802,0.0024988588864877474,10.258561209287338,0.29379398074319996,-1.990550992957428
951413298091041,-0.004028236868354392,-0.0018686279870557107,-0.012058710765064071,10.252473233203684,0.24352974188077103,-2.1346275660936525
951413299067708,-0.0013387189235082749,-0.007311836597178155,0.0014306618574879758,10.234018289601607,0.220276923540752,-2.5847199731229855
951413300044427,-0.005335357340329231,-0.00887187559780082,-0.009922316707064529,10.234945912003395,0.2316171378793369,-3.0205236218502405
951413301021145,0.0038219439441810354,-0.004139679615641008,0.0006292633352618565,10.239601295471763,0.1565981054305741,-2.9538427497738766
951413301997864,0.010706320525101875,-0.00029416884951571616,0.0008960618420355091,10.226605623507451,0.19522404806480578,-2.597817753031834
951413302974583,-0.0062961280170950144,0.0075475430063417425,-0.011123912989451127,10.264511580092947,0.28755216737663264,-2.2013084381700163
951413303951041,-0.017377109270605127,-0.004382734719269545,0.0030334589019402163,10.291526451285735,0.24864373813272594,-1.8762419206796965
951413304927760,0.004176701704893521,0.0026227940030697505,-0.01366150780951631,10.250863565109908,0.26247761647603113,-2.22988496063528
951413305904427,-0.00677284798179555,-0.005308974888598148,0.0031668581553270414,10.223434211544344,0.21175839766788526,-2.714507787957132
951413306881145,-0.007346446716209238,0.00024713543260138646,-0.012593310780516538,10.240650200189265,0.12531196566419842,-3.1705540928137212
951413307857864,0.013913417850090617,-0.008728793888601073,0.00597125148216588,10.238113047184699,0.1353045162666926,-2.8300078386280934
951413308834583,0.004568787459960471,0.010878291049489282,-0.009120918184838407,10.207891231417827,0.23835688382526296,-2.4370704648070722
951413309811041,-0.01673177013017126,0.002888599674942593,0.0011628603488091599,10.302413613649765,0.28532954312599335,-2.0798544896718
951413310787760,-0.012761242125634596,-0.004883189015453435,-0.008452918915999114,10.32861896019543,0.29137826874900696,-2.014365590127558
951413311764479,0.009237346418341267,-0.0014104660817005844,-0.00538072408048146,10.257012486670757,0.23855573782356077,-2.2882309722368217
951413312741197,-0.013946795592126164,-0.00017865044054332755,-0.0009735337091903838,10.223679949376955,0.2044386790420535,-2.8395336774961453
951413313717916,0.0008793092250513133,-0.0010494907178660899,-0.009387716691612062,10.245428369528229,0.1432869304744517,-3.1014922580897903
951413314694375,0.018817418737380614,-0.011799655810453263,0.003433656662100694,10.197001979220053,0.20211583153685034,-2.793095461549115
951413315671041,-0.0023384204224636174,0.014552986651174608,-0.013126907794063844,10.210821688311924,0.2468382259756303,-2.3358591724381887
951413316647760,-0.01803935554120011,-0.002381073936306324,0.004636255946392456,10.26146507667592,0.3236373183003893,-1.961973476353272
951413317624479,0.0015307388560121596,0.001038624324057218,-0.012993508540677016,10.295469233603114,0.27590333001759937,-1.9965048907846836
951413318601197,-0.0009493049621191542,-0.0018687220940780572,0.0026322581398745748,10.262321320161913,0.23125829176996499,-2.3965861466872975
951413319577916,-0.011314016575815586,0.00014604619006224257,-0.009120918184838407,10.223425823546185,0.18158198017239746,-2.993136089500422
951413320554375,0.008190908271208917,-0.0026878593632676776,-3.873593357743736e-05,10.250716488062594,0.1515779677026592,-3.1419765762095655
951413321531093,0.019060129169995863,-0.009224229635656094,-0.004847127066934158,10.20016662099575,0.1940188760872469,-2.6073435918998857
951413322507812,-0.016758447561629246,0.010920377623172233,-0.004445926304868515,10.21582009865285,0.2553869776774896,-2.1834477388271423
951413323484531,-0.013939743158426826,-0.007361137754077728,-0.0040457285447080375,10.255455673956968,0.3045605858042039,-1.9631644547465015
951413324461197,0.006699241396066998,0.006249501083595754,-0.008186120409225462,10.286844209173774,0.26496750096790866,-2.1512982811821897
951413325437656,-0.011559540410033474,-0.0005672832116275276,-3.873593357743736e-05,10.246410794755997,0.22269681193525728,-2.558524413305289
951413326414375,-0.004955305023494542,-0.0007970249969331739,-0.010857114482677474,10.236994506131902,0.1574930645332528,-3.1765069965020842
951413327391093,0.013378385493605104,-0.006878724430693352,0.005436651466713412,10.246266127388978,0.11841222893539748,-2.981229287984803
951413328367812,0.006025270491757542,0.002861036374715234,-0.016600303391647142,10.223883310773736,0.2527920977113543,-2.3406220918722154
951413329344531,-0.01685807360679375,-0.002429174167589112,-0.0007067352024167313,10.260673203619977,0.30211783034628037,-2.007220713907073
951413330321250,-0.0032331800472136106,-0.0025373838863225317,-0.012726710033903367,10.256439954971086,0.23411725094027588,-2.0417521283384845
951413331297708,0.005132171989892521,0.0019431266367136075,-0.0008401344558035567,10.256782564536142,0.25990282075192017,-2.3727715495171675
951413332274427,-0.01462503988995947,0.0010903183026744435,-0.007251322633612518,10.241335834377937,0.23101807499245716,-2.5763851126481634
951413333251145,0.0024638613394134643,-6.531213948313732e-06,-0.011257312242837951,10.296515232566495,0.1767384251987436,-3.0491001443155046
951413334227812,0.009648401378008748,0.0014512085890025076,0.003433656662100694,10.212590136882454,0.13536337674204652,-2.7859515794675223
951413335204531,-0.00563553021333065,0.00606906045518968,-0.013528108556129487,10.196693853261937,0.24804558362700244,-2.3239523709225702
951413336180989,-0.011012611011690142,-0.00744277928105476,0.0016974603642616283,10.271354911325234,0.31174289612477296,-1.9417318143628308
951413337157708,0.00510453991758491,0.0012876930852855934,-0.014729704838516083,10.255083744294714,0.23529597394528656,-2.0512779672065364
951413338134427,-0.004521923334955334,-0.00037601619363856185,0.0065058514976183476,10.228474221179605,0.19298551464425526,-2.4882716001881287
951413339111145,-0.015691766648087347,0.002797220973875987,-0.008987518931451584,10.192967233799228,0.2379369032564314,-2.751420165036111
951413340087864,0.011911477916626117,-0.008654152098178934,-0.00043893369373791533,10.254491666498687,0.15645492954236828,-3.0610079399700156
951413341064583,0.004576337103368622,0.003431113912192396,-0.0121921100184509,10.218437286250024,0.11417637423505371,-2.5823380163365264
951413342041041,-0.018193112296738218,0.0005984092844792593,-0.002976528513803102,10.232639797684058,0.2459512214579073,-2.1072410278827265
951413343017760,-0.004676941880012681,-0.0008762646726766377,-0.004847127066934158,10.343439453617307,0.29646522153723137,-1.776221606704043
951413343994427,0.006420935548176912,0.009796856778254827,-0.011525113751516767,10.304764978020165,0.2314953261822109,-2.219169137512891
951413344971145,-0.011156326984170167,0.00025666678954514705,0.0031668581553270414,10.2305040071837,0.22981926641722297,-2.581148032082189
951413345947864,-0.00696038746497244,0.005939112879784046,-0.013261310049355832,10.206856482612567,0.19617945882546942,-2.7752347622062405
951413346924583,0.013908822193811315,-0.008348576626350279,0.004101655930939988,10.245280944727174,0.1423633367254115,-2.900260651745254
951413347901041,-0.002328777904397517,0.005243909528400221,-0.016867101898420788,10.188011498450503,0.1785980256114995,-2.548998574437237
951413348877760,-0.01949030151939704,-0.004086775681891083,0.0065058514976183476,10.27344246205117,0.2938369333768418,-1.9584015353124755
951413349854479,0.006700014589021096,0.004649701312533192,-0.009254317438225234,10.319741803363323,0.30363221983546995,-1.7655047894427613
951413350831145,-0.0020185957350463218,0.0034336274735494313,0.0028990566466482255,10.241174556316492,0.2145966754485911,-2.375153506303627
951413351807864,-0.013160378498937378,-0.004090499198380819,-0.008719717422772768,10.211858233296105,0.2368218129464684,-2.694266125966691
951413352784322,0.0007506249363885944,0.003509264372442542,-0.0035111285292555704,10.270261988562075,0.1673901641008767,-2.9074045338268464
951413353761041,0.00977504775438574,-0.003650172448679393,-0.00391232929132121,10.241272954190421,0.16149733984251913,-2.8562033984457904
951413354737760,-0.0119844766445549,0.008528883143508026,-0.005247324827094636,10.232773346461235,0.25521834950818423,-2.309663612620492
951413355714479,-0.008245237123128002,-0.00430328922638027,-0.0028431292604162747,10.242534037690623,0.29036558869562035,-1.879813861720493
951413356691197,0.008681805970141813,0.006891809530745569,-0.010455913720611833,10.320781966329537,0.25694213412650774,-1.911963319365445
951413357667916,-0.010226813007091612,0.00039863265063454055,0.004235055184326813,10.264390213884655,0.1809781437376248,-2.5525705154780334
951413358644375,-0.011852095860334241,-0.003494884239751193,-0.016065703376194677,10.258212315896673,0.21882934911187205,-2.7764257405994703
951413359621041,0.011645301522675464,0.000423879177134761,0.007039448511165652,10.293364756709435,0.18273206720284743,-3.0240955628910373
951413360597760,-0.004178062061749407,0.00553626578892833,-0.013794907062903138,10.246832960587291,0.15468668808986533,-2.6001997098182934
951413361574479,-0.013141057033546172,-0.0037392343760188607,0.0008960618420355091,10.240589663993758,0.2314269199392703,-2.270370272893947
951413362551197,0.00021416672919373023,0.0010783000169906833,-0.00858631816938594,10.267309192577438,0.2535731983736635,-1.7559789505747094
951413363527916,0.0002260540895341285,0.002733405573036739,-0.0013747344712560252,10.270165345989891,0.2614882017017316,-2.078664505417463
951413364504375,-0.015272531207072195,-0.0019156123702281447,-0.002576330753642624,10.20668936502122,0.23669772726523666,-2.787142557860752
951413365481093,-0.000706837691476692,-0.0018325550709725987,-0.008051718153933473,10.211296368102085,0.17212395138057918,-2.933600093644543
951413366457812,0.008323937234099375,-0.0034865538084242168,-0.00043893369373791533,10.273259078457116,0.16505299860839323,-2.871683135141098
951413367434531,-0.010930326066788499,0.004495708136244122,-0.011658513004903594,10.271398396527998,0.20957653772067625,-2.563287332739315
951413368411250,-0.007035905053463022,-0.0038319081097245977,0.005303252213326586,10.257113239509499,0.2889122466837972,-2.075091570237774
951413369387656,0.0070877340096599,0.005004672048283765,-0.013928306316289964,10.23733611109321,0.2509936304298589,-1.9024374804973931
951413370364375,-0.011406300708941074,-0.005556842724209739,0.005036453706552933,10.249400749804746,0.21825573983429108,-2.3132355536612885
951413371341093,-0.010802004201333192,0.0035430205147985155,-0.014462906331742431,10.2247884327901,0.18673733787536326,-2.703791964834743
951413372317812,0.0065999107878823,0.0010505575322345478,0.0030334589019402163,10.275199565923609,0.1806090703873907,-2.8288168602348636
951413373294531,0.0027374577475304343,-0.0010362624770496294,-0.007918318900546647,10.260029670880325,0.15899254021578052,-2.9466988676922843
951413374271250,-0.014359949109782876,0.0028284901874919607,-0.005514123333868287,10.212117656771223,0.1906302543080472,-2.4668389598044578
951413375247708,0.005138148491335224,-0.001103689684255146,-0.0007067352024167313,10.292743644380346,0.30338882202089934,-1.947684718051194
951413376224427,0.002322622736180138,0.006367421343801711,-0.0097889174536777,10.283728016526268,0.2868353822108458,-1.8452834414279737
951413377201145,-0.01021636447479891,-0.01438461334219419,-0.0040457285447080375,10.256849574938627,0.2334952340078846,-2.507323277924233
951413378177864,-0.005752977411095126,0.001863775250846677,-0.009654515198385713,10.221041826391398,0.1351836129507228,-2.9205023137356947
951413379154531,0.008193685762111342,-0.0012059798524110745,0.0026322581398745748,10.266165491537167,0.1613891620029995,-2.9371730288242324
951413380130989,-0.007879298805394449,0.0011673619443301514,-0.01339470930274266,10.26375215930537,0.16753492984351426,-2.7990493593763706
951413381107708,-0.010749559417763488,-0.004911926608680541,0.0031668581553270414,10.250873680536683,0.2622914879541835,-2.369199608476371
951413382084427,0.010010020274273888,0.0041012765542218135,-0.011257312242837951,10.307738316370287,0.24273759125033756,-1.8357576025599218
951413383061145,-0.008383861709174587,0.004085552355149438,0.0016974603642616283,10.278567330075283,0.23884049841734137,-2.075091570237774
951413384037864,-0.017406096911573563,-0.0022380278892395284,-0.008987518931451584,10.226729131617166,0.2320021217276815,-2.7323684873000067
951413385014583,0.005928991015382595,0.00048047999475738624,-0.0013747344712560252,10.224049642344264,0.1459613536337451,-2.884780915049946
951413385991041,0.0033985150494647252,0.006437165324734366,-0.0020417307381901556,10.252753629882339,0.16742198111250012,-2.883589936656717
951413386967760,-0.012636804162272895,-0.0019793336640450457,-0.009654515198385713,10.214543104823592,0.18200832414355372,-2.6740234698373575
951413387944427,0.001978416541362996,-0.00929886239656232,0.0015640611108748029,10.235152041725541,0.27099455116626686,-2.101288124194363
951413388921145,0.009196958258734043,0.008164595897475422,-0.016199102629581495,10.265123321916393,0.25358910621537556,-1.7440721490590907
951413389897864,-0.019776268246260664,0.006374550849511902,0.005704452975392228,10.236150696016667,0.2289762098963912,-2.320380429881774
951413390874322,-0.002968169206859719,-0.0020057901456779666,-0.012593310780516538,10.228607769961588,0.17922890551000262,-2.9693224864691845
951413391851041,0.0051473687335553036,0.0009400576723910256,0.005571053722005402,10.258048215734558,0.16021580703706398,-2.9228842705221543
951413392827760,-0.0035222606186195975,0.011516987690272831,-0.011791912258290422,10.297176520448748,0.18670074864404612,-2.7311785030456694
951413393804479,-0.01471828021320765,-0.009292848738962481,0.0022320603797140967,10.279793589441969,0.21920955941232373,-2.491843541228925
951413394781197,0.012810181402683437,0.0008378525817415279,-0.005781924842547103,10.255307935385414,0.2482396654056065,-2.178684819393116
951413395757916,-0.0048181541621129306,0.005100854451817509,-0.003244330022481916,10.342538371196671,0.2892415497656514,-1.8286127263394365
951413396734322,-0.020589351059217633,0.004960089516344899,-0.004179127798094864,10.27568892757016,0.26107935675491845,-2.384679345171679
951413397711041,0.003931182028477097,0.0011035465434909037,-0.005781924842547103,10.248033080825032,0.1911752289392667,-2.95146178712631
951413398687760,0.0020997637999374164,4.201068612231323e-06,0.004636255946392456,10.271224519722042,0.18635235535521785,-2.9919461052460847
951413399664479,-0.009897047231932523,0.009989418828882922,-0.019538095971872806,10.24366064207975,0.1485711474065422,-2.7156987663503616
951413400641197,-0.0031782881677412888,-0.011114068893519628,0.00597125148216588,10.24210442814409,0.2540084053109316,-2.3227613925293404
951413401617916,0.013577985168364538,0.004057989054922079,-0.016065703376194677,10.287775454672051,0.3118128935503445,-1.8893397005885448
951413402594375,-0.015000895365321808,0.002255916691758884,0.004501853691100466,10.277006020495259,0.2711854519078082,-1.9584015353124755
951413403571093,-0.01040754917718208,0.008603515904414251,-0.011658513004903594,10.202577514532619,0.2022717329015063,-2.6764054266238166
951413404547812,0.006873403094022878,-0.0045222987291253704,0.0022320603797140967,10.246536141897575,0.1826191184718333,-3.108636140171383
951413405524479,-0.0025702772363707578,0.003207497494610054,-0.007518121140386169,10.257107215456571,0.17096491307372483,-2.908595512220076
951413406501197,-0.012092443775570354,-0.0039220858851744195,-0.004713727813547331,10.227635488918661,0.1940188760872469,-2.6073435918998857
951413407477656,0.008181822609899771,-0.001391233212800202,-0.003244330022481916,10.17838469853648,0.25645374731473564,-2.27751415497554
951413408454375,0.007493583052310375,0.0061123479544894135,-0.008719717422772768,10.255628103227481,0.27000354653753555,-1.951257653230883
951413409431093,-0.02149400811255304,0.00132006008798009,0.0035670559154875195,10.318867813492629,0.26495000194356555,-2.164396061091038
951413410407812,-0.009881699038409436,0.017805490127049656,-0.005113925573707809,10.265897946957834,0.2307905863477979,-2.746657245602085
951413411384531,0.0010359772593378854,-0.0005420366851273071,0.0027656573932614004,10.277024877745175,0.16588591487045606,-3.1407855978163357
951413412361250,-0.005765058448776901,-0.0007271959384940886,-0.017801899674033738,10.268855315209013,0.12812697816581714,-2.8478685379709674
951413413337708,-0.005168913756338686,-0.010326191808430066,0.00516985295993976,10.206787774681027,0.2549606337063333,-2.5025603584902067
951413414314375,0.01226196802774601,0.00463046844363281,-0.011390711496224778,10.223412648705557,0.2780702761581466,-2.1596331416570123
951413415291093,-0.009970450942757569,0.003835282668304278,0.0033002574087138688,10.216586868366948,0.25920989801280114,-1.9988858534322504
951413416267812,-0.017413534908235394,0.005744363824584109,-0.00538072408048146,10.262336096716412,0.2194322758372893,-2.3251433493158
951413417244531,0.0060575635875806085,-0.0019408588967283651,-0.00538072408048146,10.21712602925023,0.17211281443036158,-2.941935948258258
951413418221250,-0.004816225348645098,0.002437652352804089,-0.004713727813547331,10.252600472035372,0.12778972049900728,-3.1003012796965606
951413419197708,-0.007725039087097858,-0.008756357188828431,-0.011791912258290422,10.264426087031824,0.16410494661330374,-2.689503206532665
951413420174427,0.00660969209063594,-0.007590758799743991,-3.873593357743736e-05,10.25233802888208,0.26946584501799614,-2.3537198717810637
951413421151145,0.008677510229927778,0.01007839567871596,-0.009654515198385713,10.252231593629238,0.2509443143938924,-1.9393498575763717
951413422127864,-0.022549199725156063,-0.002929713541279431,0.0024988588864877474,10.234901352638312,0.2567639601896158,-2.0453240693792805
951413423104583,-0.00522706060737887,0.0038473950610103847,-0.010055715960451355,10.23585308905719,0.18694892000650962,-2.545425639257548
951413424081041,0.0017035949876946684,-0.0013226991870002472,0.00436845443771364,10.227986030096302,0.16606726984441078,-3.005043885154933
951413425057708,-0.012400433928271976,0.008584283035513868,-0.013794907062903138,10.277744720398514,0.1910702347932082,-3.0300484665794003
951413426034427,-0.0025216770940827073,-0.014614440205006267,-0.00017213518696426277,10.220878708413153,0.17259324798537726,-2.5823380163365264
951413427011145,0.010689258268178308,-0.00170501837631645,-0.00858631816938594,10.264107500146949,0.3008203896991131,-2.0858083874990556
951413427987864,-0.005216881832698139,0.00789980293717467,-0.0015081337246428523,10.305202783425417,0.29499119813580327,-1.9869790519166315
951413428964583,-0.019382687647827627,0.0012827862462801937,-0.0005733359490299058,10.29654396478651,0.2291225668216597,-2.2108342770380682
951413429941041,0.0007347695763304251,0.0053100417029666065,-0.009521115944998885,10.215044347286536,0.20808660647753588,-2.7859515794675223
951413430917760,0.00012345553244322386,-0.009025953851596321,0.0023654596331009223,10.24489526178917,0.18377656559605665,-3.13483169998908
951413431894479,-0.010939465622096118,0.0068605493466455105,-0.013928306316289964,10.256679600227784,0.18065520405809526,-2.794286439942345
951413432871197,0.016721143781166556,-0.030127846617191582,-0.0012403322159640347,10.219671587220336,0.2383441570206136,-2.446596303675124
951413433847864,0.010402082302111326,0.008216298905608562,-0.010455913720611833,10.29229758350894,0.31041363979418163,-2.044133090986051
951413434824322,-0.01593373745611076,-0.0007056462958665677,-0.0007067352024167313,10.293552282309149,0.26392618493996134,-2.038180187297688
951413435801041,-0.01171693242795159,0.004800082682455992,-0.007251322633612518,10.263143287327482,0.21820960483538734,-2.3477669680927002
951413436777760,0.005266798890351691,-0.0004517648026551389,-0.0019083314848033302,10.230915256819724,0.218655948722873,-2.906213555433617
951413437754479,-0.0033563520172794716,-0.00463412025422506,-0.010189115213838178,10.279343560909462,0.1563435719939851,-3.144357538857132
951413438731197,-0.0070666551740896,0.0017783161003575624,-0.004445926304868515,10.236265535132413,0.20467571345429939,-2.662116668321739
951413439707916,0.012575158605098988,-0.009852305704002563,-0.0011069329625772093,10.193446936186868,0.30648572398461227,-2.3072826499729255
951413440684375,0.0073624563524209595,0.00544960571282243,-0.008719717422772768,10.239299638828687,0.2830538246547443,-1.9988858534322504
951413441661093,-0.02083762583387116,0.0015631151916086275,0.0011628603488091599,10.308594778115598,0.22922438125885466,-2.1346275660936525
951413442637760,-0.0003320612837738464,0.0024738193759095478,-0.015397704107355376,10.28944192624217,0.24324498128699043,-2.3477669680927002
951413443614479,0.003432189746659359,-0.006373578142165792,0.0026322581398745748,10.227377677250097,0.20664440008773113,-2.972894427509981
951413444591197,-0.0017837494950910175,-0.0015054565891334597,-0.01593230412280785,10.256049619876158,0.14199108100991548,-3.1788889532885434
951413445567656,0.003428334462061654,-0.003718791551985778,0.0031668581553270414,10.20254630251799,0.18448130543046964,-2.6073435918998857
951413446544375,0.01558262242357505,0.0050635806101176125,-0.0073847218869993415,10.232008375796376,0.24470946024903123,-2.1441534049617044
951413447521093,-0.008123336945382788,0.00553256890505563,0.0004958640818750311,10.264912199177523,0.26282919080192213,-1.9667363957872979
951413448497812,-0.01515128756957485,0.0001737035973119476,-0.0060487233493207535,10.268599949119698,0.24458219353073674,-2.2394107995033323
951413449474531,0.00459946464403498,-0.0031474280113854016,-0.006983521124933702,10.245204560953528,0.1869330108365983,-2.557333434912059
951413450451250,-0.004412266866424275,0.00019293646621233013,-0.00391232929132121,10.268113108953203,0.20289147717799105,-3.1050641991305867
951413451427708,-0.0008441564359410549,-0.004525816428469293,-0.012860109287290193,10.240074523647614,0.16846329581224823,-2.996709024680111
951413452404375,0.014299533108330136,-0.005971717130265132,0.0031668581553270414,10.235206588630385,0.21349809012792081,-2.3049006931864664
951413453381093,0.004303010178357512,0.006603270893729541,-0.012993508540677016,10.256709143476241,0.30218146304132804,-1.9595925137057053
951413454357812,-0.016457064702334705,-0.00027853875746568696,0.0026322581398745748,10.244083539216376,0.24371427789178848,-1.9965048907846836
951413455334531,-0.006315123015954171,0.008800881657509483,-0.019137898211712325,10.270376605339637,0.20858453772869542,-2.4132568617758348
951413456311250,0.008863484079052417,-0.007454806596254436,0.0003614618265830406,10.23910643660617,0.18682960654497158,-2.6347301301108126
951413457287708,-0.009333688230068653,0.0027864036138090112,-0.010189115213838178,10.250505296573417,0.18264934430082574,-3.0860125213944825
951413458264427,0.005675659491031642,-0.005614559389942719,-0.0013747344712560252,10.194101166054203,0.14733256723472887,-2.7502301807817733
951413459241145,0.020757053529714246,0.0016173141579976836,-0.007518121140386169,10.233888509442545,0.25172950447442055,-2.24417471307625
951413460217812,-0.01065504687638889,0.005472450388089082,-0.006182122602707581,10.290043493921155,0.3071284223066086,-1.8262317636918697
951413461194583,-0.018455534914163997,-0.0020587791569343225,-0.003777927036029221,10.2888578835713,0.25540129566476993,-2.1727309215658606
951413462170989,0.004315926123070636,-0.00015330980702076073,-0.012860109287290193,10.259915913761022,0.1844844877957316,-2.604961635113427
951413463147708,-0.0006755650846387241,-0.007573927782077178,0.0018308596176484537,10.18849492777563,0.19146953397243474,-2.7311785030456694
951413464124427,-0.009071926837566668,0.0030402851070204396,-0.011390711496224778,10.238556488127491,0.1649543665364602,-2.9455078892990545
951413465101145,0.011532684048317343,-0.011913973293808867,0.005436651466713412,10.23596251378946,0.17851848374654056,-2.6085345702931155
951413466077864,0.009719721850520868,0.02295986017598791,-0.006583323364773224,10.26556829100748,0.24701003651019757,-2.2072613418583797
951413467054583,-0.02083991052443184,0.0024881544353204457,0.0008960618420355091,10.290856935592757,0.28454216471525356,-1.7774125850972726
951413468031041,-0.006021695427982483,-0.004165046881780611,-0.017000501151807616,10.287117766909901,0.24215216354926342,-2.2739422139347436
951413469007760,0.004075659170055834,0.0011564504772408292,9.466331980938805e-05,10.25345365810951,0.20471230268561652,-2.6347301301108126
951413469984479,-0.00865794495899317,-0.003970177086941292,-0.010055715960451355,10.262143105854468,0.1529167698008373,-3.03243042336586
951413470961197,-3.4099478291260574e-05,-0.005796200943965577,-0.006850121871546874,10.234955186502164,0.16027784987767985,-2.876446054575124
951413471937864,0.015622738803713593,-0.005848984138076121,0.0020986611263272698,10.243916905737887,0.22296884572438852,-2.3549108501742935
951413472914322,0.0031156182299712618,0.005021503065950578,-0.012058710765064071,10.264485649857917,0.273711926959202,-1.8524273235095663
951413473891041,-0.021765872749280123,0.0008919574411082379,0.0002280625731962152,10.272458532323526,0.24983936434269827,-1.8738609580321297
951413474867760,-0.00019402482648365492,0.001964864493385821,-0.013126907794063844,10.252257306722015,0.23589344697773443,-2.496606460662951
951413475844479,0.0022309706689832456,0.001068589475518146,0.005036453706552933,10.242330945441532,0.27602196067766266,-2.8002403377696004
951413476821197,-0.012253630707691518,0.0003602519903402062,-0.014729704838516083,10.24508938642567,0.206628492246019,-2.9848012290255994
951413477797916,0.004512552770854597,-0.014838262439734422,0.00436845443771364,10.255239471438477,0.1677099214151443,-2.6680705661489945
951413478774375,0.010282186422314439,0.0014621200560918299,-0.010055715960451355,10.198469608946446,0.23855414664092978,-2.2894219506300515
951413479751093,-0.008516007899393739,0.003819652576254249,0.0015640611108748029,10.246726795584784,0.28922086837604644,-1.844092463034744
951413480727760,-0.01462575319341823,0.0016209259643639527,-0.007116920378320526,10.282568221674312,0.2687697399136152,-1.9822161324826055
951413481704479,0.004331280862708285,0.002318531166981347,-0.003244330022481916,10.238547120765341,0.2322725630059826,-2.529946896701133
951413482681197,-0.00652017225060271,-0.0037584672449192435,-0.0012403322159640347,10.224253193232682,0.22484208265114913,-2.737131406734033
951413483657656,-0.009726767932772322,0.0009339232751518054,-0.009922316707064529,10.27970258158944,0.1589432255080132,-2.98361025063237
951413484634375,0.014043722147703375,-0.01074127203163127,0.0031668581553270414,10.235165239324846,0.17368865226898475,-2.6549717921012537
951413485611093,-0.0006029885067413899,0.0031149178679266633,-0.017801899674033738,10.240166094364898,0.2400186256029706,-2.0858083874990556
951413486587812,-0.02254642144118874,-0.00011251826597694175,0.006372452244231522,10.26745579048531,0.25835311932407046,-1.747644090099887
951413487564531,-0.0013887175729739923,0.006362617641334573,-0.010322514467225007,10.279446769125755,0.23982136145910457,-2.233457895814969
951413488541250,0.01419435910837466,-0.030299880766280162,-0.005648525589160276,10.24230844015936,0.22246932329059801,-2.7287965462592103
951413489517708,-0.01170795379843123,0.000297637515117743,-0.006983521124933702,10.26054305103278,0.18177606195100154,-2.8478685379709674
951413490494375,0.0007761564288502642,-0.010139643415401807,-0.0035111285292555704,10.272036154318585,0.14459868910889928,-3.0121877672365263
951413491471093,0.01998135588550356,-0.006579265297072086,-0.005514123333868287,10.209356576926904,0.24553124088907574,-2.4215907281117643
951413492447812,-0.012242403825185152,0.002814061021058716,-0.007116920378320526,10.28541414403793,0.2736673831429292,-1.8857677595477484
951413493424531,-0.020838116567183793,-0.0008437945334438792,-0.0012403322159640347,10.287180701808094,0.2378558571909348,-1.9202981798402676
951413494401250,0.004316852627323681,0.007065035575935021,-0.0059153240959339305,10.239989094363386,0.19056821146743133,-2.5132771757514885
951413495377708,-0.0027958069438927015,-0.005437721538386997,0.0035670559154875195,10.207098451822256,0.1711637684002218,-2.759755025510933
951413496354427,-0.008657912137720667,-0.007844546185933074,-0.013528108556129487,10.29517884120823,0.16499254695040833,-2.9169303726948987
951413497331145,0.013105610419391038,-0.0018374619099779986,0.006104650735552705,10.270296037652377,0.15437329417792242,-2.834770758062119
951413498307812,0.009743252661336382,0.002222348763447603,-0.013928306316289964,10.2288110057203,0.19906605860709145,-2.398967109334864
951413499284531,-0.01764376857778964,-0.004391150228102952,0.0020986611263272698,10.332202316083881,0.27964452148593955,-1.8738609580321297
951413500260989,7.913346835494473e-05,-0.0012046848197719436,-0.011925311511677245,10.24374959375816,0.2568021406035639,-2.0167465527751247
951413501237708,0.0004913109519548093,0.007139583259334814,0.0023654596331009223,10.260997785794904,0.2119874774951755,-2.5430446766099815
951413502214427,-0.008780727437628782,-0.006867803934088115,-0.008051718153933473,10.258816082369657,0.24024066055466062,-2.812147139285219
951413503191145,-0.005463208271233662,-0.009653739025290544,-0.008452918915999114,10.271330240569883,0.1852617246195033,-2.915739394301669
951413504167864,0.018254378587560488,0.0036885040752318316,0.0016974603642616283,10.282065057650936,0.15096935904819286,-2.704982943227973
951413505144583,-0.002048541702884945,0.0035706779220482203,-0.011390711496224778,10.304031574007997,0.24702912538897243,-2.192973577695194
951413506121041,-0.01923176307025531,-0.003445677189873967,0.004101655930939988,10.333123121416888,0.32043482371483806,-1.682155190555645
951413507097760,0.000598968600278359,0.0006189371860187727,-0.015397704107355376,10.270136932432317,0.2636827871253908,-2.22036011590612
951413508074427,-0.0026703526256041184,-0.0015944068063494612,0.0037004551688743464,10.197211251141182,0.19836927202943494,-2.9205023137356947
951413509051197,-0.007475143189145402,-0.006016111448159304,-0.01646590113635515,10.240856731658162,0.2019026595512722,-2.9526517713806473
951413510027864,0.004772084159859271,-0.013392240998299202,0.0031668581553270414,10.274695252260937,0.17947071347014143,-2.788332542115089
951413511004322,0.009842458255236783,0.020246165023974052,-0.01366150780951631,10.250471816129547,0.20613760587045968,-2.4596940835839725
951413511981041,-0.012898102440302782,0.002711770852902788,-0.003777927036029221,10.239912636057753,0.25778678182997034,-2.1715399431726308
951413512957760,-0.009579918867605876,-0.0008738537919271532,-0.0045793255582553425,10.299302777318657,0.2654749779866548,-1.7714586872700169
951413513934479,0.005521324288254559,-0.0014357216377167206,-0.008186120409225462,10.254553053381642,0.26220558268689986,-2.433498523766276
951413514911197,-0.010238977349332656,-0.0012576828605442155,-0.0031109307690950928,10.22941488782015,0.20065712148595197,-2.993136089500422
951413515887916,-0.0009842013949561777,-0.004425928111546934,-0.01646590113635515,10.252446233304223,0.15996445463753775,-3.1110180969578423
951413516864375,0.012452588809501612,-0.009007921908312722,0.00436845443771364,10.236165917170867,0.2297015454665151,-2.6692605504033318
951413517841093,0.0024362414513793003,0.01016003720569299,-0.015397704107355376,10.215708286109221,0.2563837498891641,-2.3299062687498258
951413518817812,-0.018703751119261536,-0.003322944197684956,0.0030334589019402163,10.261417645463283,0.25907308552692004,-2.101288124194363
951413519794479,0.003659431129268687,0.00040473138574080917,-0.0097889174536777,10.26902910828966,0.2461818924678285,-1.9345869381423457
951413520771197,-0.003732285365435403,-0.004675090979797656,-3.873593357743736e-05,10.216497120807174,0.2298447200265217,-2.5620963543460853
951413521747916,-0.015439957576824613,0.016233338733720886,-0.0031109307690950928,10.226330373433393,0.17905073290130985,-3.102682242344127
951413522724375,0.002896697089820618,-0.00626647524202681,-0.00017213518696426277,10.256818282387812,0.16617385650129943,-2.925265233169721
951413523701093,0.014785614130110668,0.0029187530404482134,-0.010189115213838178,10.220423814281476,0.18686301473922598,-2.6097245545474532
951413524677812,-0.010518466161268164,0.0032195248098097298,-0.006182122602707581,10.217829419684147,0.26370187733236483,-2.2060713576040425
951413525654531,-0.010898831165113254,-0.0015115553242397285,-0.0019083314848033302,10.250834638207138,0.2509284052239811,-1.951257653230883
951413526631197,0.004717048017958593,-0.0014753973306501859,-0.012593310780516538,10.279512788373566,0.2625698838174403,-2.1608241200502416
951413527607656,-0.010224525181128074,-0.0018627084364782193,0.0033002574087138688,10.239018917488202,0.20937927490500943,-2.710935846916336
951413528584375,-0.0015124640526926656,-0.0030800098336958006,-0.01419610782496878,10.278010037643492,0.16577614717650466,-3.2229452124491145
951413529561093,0.01071614576502772,-0.0006515414364998577,0.005303252213326586,10.261355643942261,0.16386472983579592,-2.869302172493531
951413530537812,0.004832587245647498,0.009004175990698126,-0.011257312242837951,10.232273386169602,0.21317515044839128,-2.546616617650778
951413531514531,-0.015392977443486607,-0.00413487591317387,0.0011628603488091599,10.211789728471997,0.2494846089797445,-2.1393904855276786
951413532491250,0.0014076497096062541,0.0006778547773685362,-0.008853116676159591,10.246113199582394,0.25203176409254424,-2.0179375311683545
951413533467708,-0.0017509078434890877,-0.004969643274413521,-0.003244330022481916,10.300821468571723,0.26127025749645977,-2.2417927562897915
951413534444427,-0.0135638704559744,-0.0009087257823934805,-0.008452918915999114,10.225861466671773,0.22230387615835542,-2.8526314574049936
951413535421145,0.008724264070242368,-0.007350311364494836,-0.0028431292604162747,10.27973850561537,0.14326147686515295,-3.120543935825894
951413536397812,0.007907557903869994,0.007116738584068162,-0.00017213518696426277,10.211817445743067,0.1353029250840616,-2.831198817021323
951413537374531,-0.006693426174693559,0.008753906303852966,-0.009654515198385713,10.25611732656515,0.22757059273790356,-2.479936739713306
951413538350989,-0.012334246113036573,-0.009295259619711966,0.0019642588710352808,10.262615986276584,0.274758015206843,-1.961973476353272
951413539327708,0.004573144638942908,0.002615579419853128,-0.014462906331742431,10.266114546744811,0.27823413210775827,-2.0369892089044583
951413540304427,-0.008627748078821374,-0.005574874667493337,0.0030334589019402163,10.24155943269951,0.2536854656314021,-2.564477316993652
951413541281145,-0.007622713377849383,0.0030018103397037588,-0.01566450261412903,10.239065493044778,0.20643759150447769,-3.127687817907487
951413542257864,0.014444565557392763,-0.009924330796529405,0.005704452975392228,10.270495723067103,0.11605438205330891,-2.960987625994362
951413543234583,0.0016431337602241577,0.016313994181742862,-0.008853116676159591,10.260259143745822,0.1989101559142363,-2.515658138399055
951413544211041,-0.0037185532440789414,-0.02625699521754372,-0.012860109287290193,10.276439923566075,0.2767282930229058,-2.2715602571482845
951413545187708,-0.0034674965683531827,-0.005743297010215652,-0.0009735337091903838,10.257199476460968,0.2593037578650404,-1.92863304031509
951413546164427,0.003124374564654348,0.0007849486479916024,-0.011658513004903594,10.28525695756804,0.23513370917830592,-2.1727309215658606
951413547141145,-0.012080664996291802,-0.0014658659737064254,0.0031668581553270414,10.266041438647148,0.20934427685632326,-2.737131406734033
951413548117864,-0.0011197176142012189,0.004377787876038164,-0.010055715960451355,10.235554213081102,0.1898475637913062,-3.0526720853563005
951413549094583,0.012185104757702491,-0.009019940193996483,0.0030334589019402163,10.234681173492719,0.1721780396362394,-2.8931157755247687
951413550071041,-0.0036523665542150642,0.009122096250904084,-0.012860109287290193,10.237595952179822,0.16901690782989817,-2.5823380163365264
951413551047760,-0.01591528760231876,-0.007304622013961533,0.0022320603797140967,10.305387710152383,0.2684992986353141,-2.1846377230814795
951413552024479,0.004585202536869602,0.0024003875406201085,-0.008853116676159591,10.308976701568755,0.2689670040574812,-1.834566624166692
951413553001197,-0.0059904298481583945,-0.0018915667693447087,9.466331980938805e-05,10.286586738103638,0.23385953646662416,-2.234647880069306
951413553977916,-0.013300076148028188,0.0012250786100631303,-0.006983521124933702,10.226769557410883,0.2031141936029566,-2.9383640072174617
951413554954322,0.009916608620374516,-0.005746908816581921,-0.0013747344712560252,10.243152923579904,0.19079342878438324,-3.2372339707511926
951413555931041,0.015339063840399667,-0.006194244332354154,-0.006850121871546874,10.263712929955654,0.20228923192584938,-2.6633076467149683
951413556907760,-0.015177198078884449,0.009278285461280908,-0.010322514467225007,10.213491967590228,0.28271656698793446,-2.2513185951578434
951413557884479,-0.013003978040342881,-0.00759316065097756,-0.0003055344403510899,10.263637379079391,0.3151824251225703,-2.044133090986051
951413558861197,0.009077475757212242,0.006617700060162787,-0.011390711496224778,10.323665255367397,0.28173411276354027,-2.094143247973878
951413559837916,-0.01579250794692042,0.0009352449404079721,0.005036453706552933,10.285034186139645,0.20860999133799416,-2.394205184039731
951413560814375,-0.006961652665203383,0.00646730966072407,-0.01339470930274266,10.270067974588645,0.24605394294805916,-2.9228842705221543
951413561791093,0.007009211363279268,-0.001973414113467554,0.005704452975392228,10.271579128368547,0.15648356551692896,-3.039574305447452
951413562767812,-0.002317543201812374,0.0010181815000241353,-0.015264304853968553,10.205368165580005,0.17369342448867847,-2.6513998510604573
951413563744531,-0.010890295058238334,-0.005482209963303516,-0.0013747344712560252,10.207547608829154,0.2625460213907725,-2.178684819393116
951413564721197,0.001936047223562528,6.83369268308619e-07,-0.010455913720611833,10.250391392764984,0.30096197440468797,-1.9798341756961462
951413565697656,0.0006243696007149137,0.003802821558587435,-0.0003055344403510899,10.301285810601739,0.22921324430863707,-2.1429634207073676
951413566674375,-0.03096066055930984,0.02257985776039885,-0.0045793255582553425,10.278572921865326,0.25267914765214095,-2.4251636632914533
951413567651093,0.0061843737038637285,-0.0017026165250828812,-0.008319519662612289,10.248731438583212,0.1886582996554594,-3.050291122708734
951413568627812,0.00473818189567701,0.003693316807214885,0.0022320603797140967,10.242016759521919,0.15283722793587834,-3.0919664192217384
951413569604531,-0.013452345614088545,0.003409470162542529,-0.014596305585129258,10.194681945138962,0.22643064596622248,-2.4406424058478686
951413570581250,-0.005443421349032397,-0.007029105800616152,0.003433656662100694,10.248585780874592,0.27707191276384113,-2.014365590127558
951413571557708,0.008142399253558915,0.007519885599092037,-0.01419610782496878,10.268740301748718,0.26990809683086453,-2.0227004506023802
951413572534427,-0.008634357920156887,-0.0015968086575830303,0.003433656662100694,10.307922349702705,0.24558055559684305,-2.384679345171679
951413573511093,-0.015438737382139621,0.00875750908070332,-0.009254317438225234,10.292410306671064,0.21072980844458736,-2.5918638552045783
951413574487812,0.005400491420503899,-0.0015187699074563508,-0.0027097300070294495,10.264958244711087,0.17560006828149427,-3.00861582619573
951413575464531,-0.00032879099252967946,0.006362617641334573,-0.010322514467225007,10.225235267669122,0.12468904035065097,-2.7442762829545178
951413576440989,-0.018322290132832444,-0.0004517648026551389,-0.0019083314848033302,10.210887850174808,0.2981030152343771,-2.33466819404496
951413577417708,-0.004442317737619853,0.02130225866168594,0.0006292633352618565,10.24573659292286,0.29042922139066796,-1.8321856615191254
951413578394427,-0.001386413358960402,0.012250665808973337,-0.00391232929132121,10.284660253184029,0.26150092850638096,-2.0691386665494105
951413579371145,-0.014741575156057448,-0.0021803112235065495,-0.002576330753642624,10.21108139189792,0.20852408739890974,-2.4585031051907427
951413580347864,-0.006416076768491769,0.002391963002270786,-0.0097889174536777,10.241051847444533,0.19862221428339294,-2.7311785030456694
951413581324583,0.008853761872729219,-0.0012179981380948347,0.0012972626041011504,10.27064589544165,0.1587952774001137,-3.094347381869305
951413582301041,-0.006435592186533205,0.003776459183976861,-0.017935298927420566,10.246872024785775,0.1652311725452852,-2.7383223851272627
951413583277708,-0.011939733060828767,-0.005302961230998311,0.0038348574241663354,10.247012834690105,0.2744716647586306,-2.176302862606657
951413584254427,0.00948402432379983,0.002246394364331039,-0.011257312242837951,10.273219246250404,0.3047355773758339,-1.8321856615191254
951413585231145,-0.006256186859218687,0.003848510909120738,0.004769655199779282,10.260435438490022,0.28155275778958555,-2.22988496063528
951413586207864,-0.01436027530100608,-0.0014477399234004808,-0.009521115944998885,10.236044752240085,0.22501707422277914,-2.606152613506657
951413587184583,0.0047228227466722915,0.003893084411543688,-0.004980526320320982,10.234582604463355,0.19839631549316544,-2.900260651745254
951413588161041,0.003937846075976666,6.32037374684254e-05,-0.0035111285292555704,10.244701779446158,0.12572240179364255,-2.8633482746662753
951413589137760,-0.00587498642146779,-0.005305278004725448,-0.011123912989451127,10.230871802451897,0.19784815982488316,-2.4180187870709684
951413590114479,-0.006250841942805268,-0.0022729849572122865,0.0018308596176484537,10.250696565793234,0.25568605493035135,-1.9595925137057053
951413591091197,0.008159161594417218,0.006124366240173174,-0.0073847218869993415,10.312295019433362,0.29040376910956844,-1.851236345116337
951413592067916,-0.01618473115211072,-0.003451690847473805,0.003433656662100694,10.28296249307491,0.21588039392785946,-2.3060916715796957
951413593044322,-0.009477672571305648,0.0051404184346275075,-0.01366150780951631,10.240991305249638,0.20953358508703443,-2.5954367903842672
951413594021041,0.008463594563122897,-0.0027865467545732533,0.0037004551688743464,10.216746926118265,0.174560343436178,-2.894306753917998
951413594997760,-0.006423426775918411,0.0040964638222387596,-0.011791912258290422,10.240043003866676,0.1674553879785553,-2.858585355232249
951413595974479,-0.005446698186391129,-0.005573673741876553,0.0031668581553270414,10.2428186332627,0.2170155684798468,-2.34895794648593
951413596951197,0.006306579802289477,0.0023943738830202706,-0.009521115944998885,10.28978660465215,0.31545286640087133,-1.8417115003871773
951413597927916,-0.002692654147691652,0.0036524311591487196,-0.0023095322468689714,10.296147492822051,0.278434577288687,-1.8869587379409782
951413598904375,-0.01952130127839258,0.0016557889253143645,-0.003244330022481916,10.281950574290319,0.23349682519051557,-2.506132299531003
951413599881093,0.010588133230161913,-0.027752102969216787,-0.017000501151807616,10.238071363280122,0.23443215038095566,-2.6978380670074875
951413600857812,0.0038317418405751915,-0.004630602554881137,0.004903054453166108,10.25013053072042,0.16721676238367844,-3.0371933427998856
951413601834531,-0.011198330262461049,0.001943220743735954,-0.015531103360742203,10.205855501007246,0.13310575311452197,-2.6906941849258947
951413602811197,0.00277717554219574,-0.0031330929519745036,0.009310244824457185,10.226117301817471,0.2841492289383517,-2.0715196291969775
951413603787656,0.007738329535772702,0.00923139518513082,-0.015531103360742203,10.243615856838938,0.266701425845001,-1.74526312745232
951413604764375,-0.014733042459894234,-0.002143037381806653,0.0015640611108748029,10.298331459779789,0.2327450419760426,-2.176302862606657
